sep=,
DeviceTag:,15,,,,,,,,,,,,,,,,,
FirmwareVersion:,2.2.1,,,,,,,,,,,,,,,,,
AppVersion:,2023.0.0,,,,,,,,,,,,,,,,,
SyncStatus:,Un-synced,,,,,,,,,,,,,,,,,
OutputRate:,60Hz,,,,,,,,,,,,,,,,,
FilterProfile:,General,,,,,,,,,,,,,,,,,
Measurement Mode:,Inertial Mode - Rate quantities,,,,,,,,,,,,,,,,,
StartTime:,2023-07-20 15:10:55.577 +0900,,,,,,,,,,,,,,,,,
© Movella Technologies B. V. 2005-2023,,,,,,,,,,,,,,,,,,,

PacketCounter,SampleTimeFine,Acc_X,Acc_Y,Acc_Z,Gyr_X,Gyr_Y,Gyr_Z
1, 334222517, 10.274853706359863, -3.5489661693573, 2.103444814682007, 101.76234436035156, -126.51204681396484, -189.83465576171875
2, 334239184, 9.907732009887695, -3.349304676055908, 1.5948567390441895, 71.9114990234375, -107.43366241455078, -133.3336639404297
3, 334255851, 10.048531532287598, -2.6501777172088623, 0.6959474086761475, 31.533273696899414, -66.47844696044922, -75.16706848144531
4, 334272518, 8.426345825195312, -3.6542840003967285, -0.040820859372615814, -35.12099075317383, 14.10749340057373, -24.400562286376953
5, 334289185, 7.151228427886963, -2.826028347015381, -1.9117000102996826, -38.04080581665039, -2.704758882522583, -85.36621856689453
6, 334305852, 7.067922115325928, -1.3546671867370605, -2.8801803588867188, 23.424827575683594, 8.123639106750488, -46.27666473388672
7, 334322519, 8.271143913269043, -2.4862060546875, -0.8384742140769958, 23.937061309814453, 49.559326171875, -30.67930793762207
8, 334339186, 8.089072227478027, -2.188755750656128, -0.5874333381652832, -39.40815734863281, 94.4813461303711, -41.01605224609375
9, 334355853, 7.4485368728637695, -1.466591238975525, -1.7949179410934448, -52.505794525146484, 150.5718231201172, 13.824225425720215
10, 334372520, 6.975429058074951, -2.127094030380249, -1.2606205940246582, -48.01205062866211, 208.59056091308594, 22.338096618652344
11, 334389187, 7.748501300811768, -1.8440992832183838, 0.21746571362018585, -57.842674255371094, 236.056396484375, 24.345687866210938
12, 334405854, 8.273726463317871, -2.646768093109131, 1.707865834236145, -66.00501251220703, 243.7965545654297, 29.813161849975586
13, 334422521, 8.872334480285645, -1.7720357179641724, 4.6630859375, -28.724367141723633, 260.4274597167969, 53.555870056152344
14, 334439188, 5.565217018127441, -7.237066268920898, 10.026554107666016, 16.83884620666504, 36.760074615478516, -95.77269744873047
15, 334455855, 8.520279884338379, -3.0718421936035156, 5.120419502258301, -35.147438049316406, 13.806678771972656, -240.6311798095703
16, 334472522, 9.209716796875, -0.5982047915458679, 5.609668254852295, -41.37372970581055, 29.67422866821289, -294.0234069824219
17, 334489189, 12.141117095947266, 3.384031295776367, 4.156450271606445, -55.89241027832031, 72.0217056274414, -184.71701049804688
18, 334505856, 11.191435813903809, 1.60501229763031, 5.760195255279541, -84.74356079101562, 88.56328582763672, 12.371307373046875
19, 334522523, 7.985621452331543, 0.793502151966095, 3.5088815689086914, -92.36702728271484, 74.3045654296875, 37.396732330322266
20, 334539190, 8.343149185180664, 2.6787796020507812, 2.240110158920288, -65.57115936279297, 140.20462036132812, 147.275634765625
21, 334555857, 9.896846771240234, -1.3203204870224, 8.80302619934082, -72.61959838867188, 185.96055603027344, 346.7265930175781
22, 334572524, 6.921046257019043, -4.06682014465332, 7.791499614715576, -43.3089599609375, -17.995023727416992, 475.5533447265625
23, 334589191, 5.716372489929199, -5.860795974731445, 6.294110298156738, -62.49474334716797, -73.94278717041016, 390.2557067871094
24, 334605858, 7.24893045425415, -5.499542236328125, 4.556836128234863, -27.384843826293945, -61.18310546875, 305.0050354003906
25, 334622525, 4.418598175048828, -5.255444049835205, 4.173060894012451, 30.743078231811523, -139.8153839111328, 260.7676086425781
26, 334639192, 5.5388875007629395, -2.836707592010498, 4.411344528198242, 79.21184539794922, -116.89122772216797, 323.2224426269531
27, 334655859, 5.205087661743164, -5.22903299331665, 3.3931667804718018, 101.83853149414062, -73.37590026855469, 421.19317626953125
28, 334672526, 3.4624340534210205, -7.902414798736572, 2.2796928882598877, 68.45147705078125, 79.50215148925781, 330.4698791503906
29, 334689193, 1.3045557737350464, -10.422891616821289, 7.864030361175537, 37.88313674926758, 137.3348846435547, 140.5605010986328
30, 334705860, 3.1949572563171387, -8.626129150390625, 8.946731567382812, -21.34433937072754, -208.2402801513672, 35.48826217651367
31, 334722527, 3.3981988430023193, -6.386654853820801, 5.309038162231445, -87.3550796508789, -61.27903747558594, 98.85607147216797
32, 334739194, 3.983043909072876, -7.182803630828857, 3.895437240600586, -89.26243591308594, -30.66547393798828, 135.55360412597656
33, 334755861, 4.824710369110107, -8.205830574035645, 4.394661903381348, -80.15393829345703, 41.12254333496094, 238.7589569091797
34, 334772528, 4.353940486907959, -7.9741339683532715, 2.4518930912017822, -100.92311096191406, 45.118263244628906, 293.4720458984375
35, 334789195, 0.17062708735466003, -8.843350410461426, 4.704757213592529, -97.33665466308594, 73.00652313232422, 353.63702392578125
36, 334805862, -2.1086325645446777, -8.468955993652344, 5.979621887207031, -76.47787475585938, 146.00738525390625, 470.09002685546875
37, 334822529, -1.0221309661865234, -10.183626174926758, 3.5703482627868652, -89.99376678466797, 82.708740234375, 432.22747802734375
38, 334839196, -0.41680094599723816, -10.153189659118652, 3.4015092849731445, -20.692007064819336, 62.468875885009766, 283.2654724121094
39, 334855863, -0.19559459388256073, -8.707818031311035, 2.0865249633789062, 126.46409606933594, 40.01845169067383, 267.53057861328125
40, 334872530, -1.8559038639068604, -7.664127826690674, 3.516275644302368, 110.5903091430664, 9.043495178222656, 191.77981567382812
41, 334889197, -4.12354850769043, -8.222630500793457, 4.259294033050537, 1.3994735479354858, -27.465328216552734, 123.25128173828125
42, 334905864, -3.6347455978393555, -7.417633533477783, 2.7904746532440186, -13.314847946166992, -41.72013854980469, 73.3426284790039
43, 334922531, -4.640926361083984, -7.615471363067627, 4.252993106842041, 120.18838500976562, -5.225461959838867, 58.72933578491211
44, 334939198, -4.278995990753174, -7.123895645141602, 4.134940147399902, 105.60103607177734, -26.438228607177734, 44.366004943847656
45, 334955865, -3.6345627307891846, -7.575933456420898, 5.1364898681640625, 79.00395965576172, -69.99801635742188, 30.895414352416992
46, 334972532, -2.8987972736358643, -7.121265888214111, 4.3470354080200195, 63.55449295043945, -64.48474884033203, 27.583744049072266
47, 334989199, -2.9388654232025146, -7.356177806854248, 4.0930094718933105, 47.7545166015625, -5.262078762054443, 101.01831817626953
48, 335005866, -2.124302864074707, -7.682376861572266, 6.761997699737549, -29.53855323791504, 33.904258728027344, 184.53799438476562
49, 335022533, -3.554424524307251, -6.5871686935424805, 7.833863258361816, -187.8485565185547, 142.46832275390625, 145.40689086914062
50, 335039200, -5.4529547691345215, -7.645834922790527, 2.4207167625427246, -171.6921844482422, 162.5021209716797, 166.01028442382812
51, 335055867, -5.62466287612915, -7.457486152648926, 3.175429105758667, -89.38999938964844, 67.84068298339844, 55.43798065185547
52, 335072534, -5.247758388519287, -6.900418758392334, 3.9225776195526123, -77.92092895507812, 45.50469970703125, 83.56713104248047
53, 335089201, -6.106356620788574, -7.004377365112305, 1.1280373334884644, -80.2033462524414, -19.893980026245117, 148.27679443359375
54, 335105868, -5.929688453674316, -6.420217037200928, 2.085663080215454, 0.5252054929733276, -60.53813171386719, 162.25003051757812
55, 335122535, -5.7922749519348145, -6.080181121826172, 3.4688384532928467, -0.7698422074317932, -64.61202239990234, 141.2779998779297
56, 335139202, -5.59637975692749, -5.635443687438965, 3.9664034843444824, -52.623077392578125, -52.06669998168945, 171.51239013671875
57, 335155869, -7.198399543762207, -5.991673469543457, 4.859210014343262, -115.15560913085938, -28.284650802612305, 159.23072814941406
58, 335172536, -9.556594848632812, -5.945494174957275, 2.3788022994995117, -82.86859130859375, -32.14396286010742, 97.98359680175781
59, 335189203, -8.650760650634766, -5.961109161376953, 2.3764359951019287, 18.101652145385742, -69.32368469238281, -8.070902824401855
60, 335205870, -7.377594470977783, -5.482122898101807, 3.7265350818634033, 27.363140106201172, -97.10086059570312, -3.6367499828338623
61, 335222537, -6.689474582672119, -5.293889045715332, 3.0341711044311523, 31.68682289123535, -104.37288665771484, -4.884470462799072
62, 335239204, -6.428687572479248, -4.984622478485107, 3.9820737838745117, 24.276586532592773, -95.783203125, -2.871103286743164
63, 335255871, -5.980188369750977, -5.470859527587891, 4.198930263519287, 16.728389739990234, -85.0914077758789, -8.433475494384766
64, 335272538, -5.951355457305908, -5.956800937652588, 4.307028770446777, 2.2906346321105957, -72.43561553955078, -21.986757278442383
65, 335289205, -5.787454128265381, -6.0148186683654785, 4.12304162979126, -5.974076747894287, -65.04803466796875, -37.88896179199219
66, 335305872, -5.579888820648193, -5.558756351470947, 4.658390522003174, 7.731696605682373, -67.75987243652344, -68.18486785888672
67, 335322539, -6.669616222381592, -4.9360198974609375, 4.933332443237305, 2.016697883605957, -59.95064926147461, -72.54594421386719
68, 335339206, -5.168977737426758, -5.446968078613281, 4.314456939697266, -44.30582046508789, -35.943092346191406, -58.53079605102539
69, 335355873, -4.8867878913879395, -6.137294292449951, 3.929109811782837, -49.71232604980469, -20.570022583007812, -69.89376068115234
70, 335372540, -5.081769943237305, -6.809981822967529, 3.946425199508667, -0.2773256301879883, -27.704570770263672, -59.025272369384766
71, 335389207, -4.43858003616333, -6.338814735412598, 5.5063371658325195, 37.41261291503906, -33.964881896972656, -85.15648651123047
72, 335405874, -3.7277843952178955, -7.228471755981445, 4.679022312164307, 41.925960540771484, -41.93215560913086, -85.80905151367188
73, 335422541, -4.342175006866455, -7.428598880767822, 4.602500915527344, 40.079734802246094, -39.600807189941406, -89.25395965576172
74, 335439208, -4.055482387542725, -6.001887798309326, 5.01042366027832, 39.86531066894531, -4.602785110473633, -109.91565704345703
75, 335455875, -4.456378936767578, -6.2847185134887695, 6.091601848602295, -4.752379894256592, 19.806758880615234, -111.03370666503906
76, 335472542, -4.482447624206543, -6.734004020690918, 4.865271091461182, 1.6527889966964722, 6.041729927062988, -75.82148742675781
77, 335489209, -4.578810691833496, -7.034585475921631, 4.37905740737915, 22.443035125732422, -1.4035521745681763, -49.375282287597656
78, 335505876, -3.7335543632507324, -6.586228847503662, 4.875517845153809, 26.48246955871582, -5.593446254730225, -37.55528259277344
79, 335522543, -3.6844699382781982, -7.04000997543335, 5.060194492340088, 30.515684127807617, 2.21240234375, -17.413469314575195
80, 335539210, -4.585423469543457, -6.743336200714111, 5.581434726715088, 33.11076354980469, 12.355175018310547, -14.629510879516602
81, 335555877, -3.8121519088745117, -7.681579113006592, 5.877350330352783, -32.112979888916016, 10.794729232788086, -41.854469299316406
82, 335572544, -2.0070993900299072, -7.413896083831787, 4.643706321716309, -36.39616394042969, 36.596588134765625, -39.370147705078125
83, 335589211, -2.597107172012329, -6.365326881408691, 5.144804954528809, -44.89216613769531, 44.48469543457031, -16.468891143798828
84, 335605878, -3.1738383769989014, -6.665874004364014, 4.241249084472656, -34.01663589477539, 57.80776596069336, -10.440302848815918
85, 335622545, -3.974822521209717, -6.6918463706970215, 3.9545257091522217, -13.180830001831055, 53.855674743652344, -14.28882122039795
86, 335639212, -5.751316547393799, -7.726316928863525, 3.1760833263397217, -14.840741157531738, 21.77257537841797, -23.897790908813477
87, 335655879, -4.220911502838135, -7.757287979125977, 4.427777290344238, 1.5472217798233032, 10.547209739685059, -41.39397430419922
88, 335672546, -2.9447548389434814, -7.014369487762451, 5.6582489013671875, 4.845667839050293, -7.7495856285095215, -43.69327163696289
89, 335689213, -2.5493838787078857, -6.44223690032959, 4.988652229309082, 47.36066818237305, -19.616092681884766, -31.433801651000977
90, 335705880, -1.7798982858657837, -6.573476791381836, 5.8428215980529785, 43.018310546875, -23.989013671875, -16.578346252441406
91, 335722547, -2.667602777481079, -5.700284957885742, 5.992963790893555, 20.873090744018555, -25.57210922241211, -2.0750205516815186
92, 335739214, -3.7888309955596924, -7.7257866859436035, 3.4237918853759766, -12.196451187133789, -27.138004302978516, 10.79201889038086
93, 335755881, -3.717170476913452, -8.275544166564941, 4.528754234313965, 20.886430740356445, -4.087194442749023, -14.430316925048828
94, 335772548, -3.7358455657958984, -8.13791561126709, 5.847543716430664, 18.692991256713867, -19.42996597290039, -26.00543212890625
95, 335789215, -3.597440004348755, -7.537103652954102, 5.095015048980713, 51.21303939819336, -24.52316665649414, -41.601409912109375
96, 335805882, -3.3783552646636963, -7.257226943969727, 5.301918983459473, 56.7403678894043, -20.04096031188965, -34.918418884277344
97, 335822549, -3.6971395015716553, -7.39408016204834, 5.449899673461914, 28.981159210205078, -31.566225051879883, -28.507080078125
98, 335839216, -2.3419203758239746, -7.013141632080078, 5.564357280731201, 17.611955642700195, -28.771015167236328, -19.53217124938965
99, 335855883, -1.9827789068222046, -7.332847595214844, 6.237572193145752, 29.571304321289062, -23.2805118560791, -18.892465591430664
100, 335872550, -1.6359553337097168, -7.046166896820068, 6.794979572296143, 45.21036911010742, -15.928094863891602, -16.711544036865234
101, 335889217, -1.6452910900115967, -6.832509994506836, 5.874242305755615, 44.3234977722168, 3.6915156841278076, -13.254030227661133
102, 335905884, -2.188307046890259, -7.043134689331055, 5.169036865234375, 42.86402130126953, 33.01682662963867, -15.943188667297363
103, 335922551, -2.6743719577789307, -7.0663604736328125, 5.499594688415527, 53.494895935058594, 48.304073333740234, 6.0437798500061035
104, 335939218, -2.9988853931427, -6.7648468017578125, 5.978932857513428, 45.6143913269043, 32.11549377441406, 14.439143180847168
105, 335955885, -3.323599100112915, -6.235074520111084, 6.480245113372803, 49.027984619140625, 21.902620315551758, 1.6920497417449951
106, 335972552, -3.0447440147399902, -6.164752960205078, 5.922370433807373, 71.5986328125, 13.087199211120605, 0.011519525200128555
107, 335989219, -2.7480902671813965, -5.815107345581055, 5.6203227043151855, 95.73773956298828, 20.379871368408203, -18.245086669921875
108, 336005886, -2.6438636779785156, -6.056788921356201, 5.349122524261475, 125.60171508789062, 30.521711349487305, -21.65778350830078
109, 336022553, -2.7490739822387695, -5.833411693572998, 5.661134243011475, 132.99549865722656, 47.22035598754883, -26.761837005615234
110, 336039220, -3.1755595207214355, -5.971559047698975, 6.438626289367676, 138.15426635742188, 46.68621063232422, -36.01780319213867
111, 336055887, -3.8176891803741455, -5.576883792877197, 6.418790817260742, 120.61463928222656, 43.62116622924805, -28.169031143188477
112, 336072554, -4.482133388519287, -2.8515748977661133, 8.171048164367676, 77.17596435546875, 9.623560905456543, -36.25116729736328
113, 336089221, -2.1836163997650146, -6.557642459869385, 7.740187644958496, 109.90401458740234, 23.396568298339844, -33.04610061645508
114, 336105888, -3.4048995971679688, -4.950146675109863, 7.660898208618164, 62.39376449584961, 8.670086860656738, -26.53891944885254
115, 336122555, -2.8230984210968018, -4.666508197784424, 7.043238639831543, 58.81416702270508, 12.573978424072266, -27.166038513183594
116, 336139222, -2.9672391414642334, -4.650313377380371, 7.313750267028809, 61.1740837097168, 19.21006202697754, -23.91746711730957
117, 336155889, -3.0668272972106934, -4.829054832458496, 8.080273628234863, 47.28593444824219, 14.785420417785645, -20.351837158203125
118, 336172556, -2.969052314758301, -5.094330310821533, 7.795022964477539, 10.55728816986084, -9.905092239379883, -5.612348556518555
119, 336189223, -2.944356918334961, -5.828007698059082, 8.318756103515625, -5.110519886016846, -38.204994201660156, 61.71377944946289
120, 336205890, -2.3131613731384277, -4.701172828674316, 8.416690826416016, -59.21355438232422, -26.75861167907715, 30.456199645996094
121, 336222557, -3.261974334716797, -2.720115900039673, 7.888332843780518, -9.982751846313477, -13.466887474060059, 2.234191417694092
122, 336239224, -3.005836009979248, -4.17623233795166, 7.805933475494385, 32.13984680175781, 3.377722978591919, -18.681365966796875
123, 336255891, -2.7199182510375977, -4.609968662261963, 7.684720039367676, 43.346370697021484, 20.40302085876465, -19.397319793701172
124, 336272558, -2.329449415206909, -5.141919136047363, 7.642695426940918, 35.64246368408203, 26.431533813476562, -8.295391082763672
125, 336289225, -3.197472333908081, -4.299685001373291, 7.755959987640381, 20.354387283325195, 15.421344757080078, -0.2726990282535553
126, 336305892, -3.9664433002471924, -3.688141107559204, 7.885769844055176, 11.935419082641602, -1.9643075466156006, -66.265380859375
127, 336322559, -3.550478458404541, -4.187810897827148, 8.080056190490723, 2.426124095916748, -17.9552001953125, -18.402793884277344
128, 336339226, -3.459001302719116, -3.861961841583252, 7.996543884277344, 19.85934829711914, -3.7173476219177246, -47.94782638549805
129, 336355893, -2.5364043712615967, -4.6438446044921875, 7.34018087387085, 24.47041130065918, 13.110269546508789, -46.58055114746094
130, 336372560, -3.358820676803589, -3.9931845664978027, 7.7351508140563965, -0.7660258412361145, 5.062402725219727, -20.002254486083984
131, 336389227, -2.567915439605713, -4.450139999389648, 7.723397254943848, -14.605019569396973, -5.522600173950195, -23.847196578979492
132, 336405894, -2.7010183334350586, -4.580981254577637, 7.482144832611084, -27.875282287597656, -11.971378326416016, -18.90228271484375
133, 336422561, -2.3146004676818848, -4.723249435424805, 7.443382740020752, -32.995086669921875, -10.942458152770996, -7.979415416717529
134, 336439228, -2.1167991161346436, -4.9113569259643555, 7.774189472198486, -19.48946189880371, -1.5046329498291016, -2.901334047317505
135, 336455895, -2.0825817584991455, -5.037678241729736, 8.134142875671387, -13.198567390441895, 6.129488945007324, 3.640047788619995
136, 336472562, -2.4771881103515625, -4.663965225219727, 8.241485595703125, -12.51788330078125, 7.404438495635986, 4.272425651550293
137, 336489229, -2.6207473278045654, -4.548712730407715, 7.958868503570557, -7.262035846710205, 8.130486488342285, 3.2228217124938965
138, 336505896, -2.795722007751465, -4.547523021697998, 7.713137149810791, -4.309081077575684, 7.525422096252441, 1.3084121942520142
139, 336522563, -2.7675352096557617, -4.552504539489746, 7.401339530944824, -1.4814387559890747, 5.4937005043029785, -1.5633608102798462
140, 336539230, -2.602358102798462, -4.514891147613525, 7.271264553070068, 3.3170955181121826, 10.175653457641602, -1.630966067314148
141, 336555897, -2.6683785915374756, -4.381614685058594, 7.118113994598389, 15.844550132751465, 15.374467849731445, -4.75042200088501
142, 336572564, -2.8249356746673584, -4.356969833374023, 7.320493698120117, 15.994793891906738, 14.459309577941895, -5.793090343475342
143, 336589231, -2.8515708446502686, -4.484676837921143, 7.278658866882324, 9.58722972869873, 5.21714973449707, -7.217764854431152
144, 336605898, -2.6270322799682617, -4.715075969696045, 7.347352981567383, -0.8661704659461975, -4.638960361480713, -4.5645551681518555
145, 336622565, -2.40397310256958, -4.8535614013671875, 7.407390117645264, -6.026989936828613, -7.485044956207275, -0.84641033411026
146, 336639232, -2.572521448135376, -4.753258228302002, 7.20018196105957, -4.395203113555908, -2.8831958770751953, 1.51923668384552
147, 336655899, -2.769273042678833, -4.645169734954834, 7.178473472595215, 1.9966826438903809, 1.2910271883010864, 2.5691137313842773
148, 336672566, -2.9183263778686523, -4.563106060028076, 7.614088535308838, 2.924976348876953, 0.9571913480758667, 1.7472662925720215
149, 336689233, -2.9197731018066406, -4.649901390075684, 7.7992634773254395, 2.7654800415039062, -0.718103289604187, 0.04489906504750252
150, 336705900, -2.851372718811035, -4.693551540374756, 8.168265342712402, 1.4605258703231812, -2.062674045562744, 0.8262401223182678
151, 336722567, -2.9316842555999756, -4.598348140716553, 8.422085762023926, -0.055003270506858826, -1.5771403312683105, 0.7496132850646973
152, 336739234, -2.8887975215911865, -4.427816390991211, 8.134173393249512, 0.0500280037522316, 1.6652159690856934, -1.147832989692688
153, 336755901, -2.760270595550537, -4.408841609954834, 7.769682884216309, 0.09887143224477768, 5.802628040313721, -1.5737724304199219
154, 336772568, -2.8098528385162354, -4.358169078826904, 7.646476745605469, -0.7816612124443054, 5.875067234039307, -2.579148054122925
155, 336789235, -2.7634756565093994, -4.4187469482421875, 7.557812213897705, -2.8574557304382324, 2.9639341831207275, -3.509286403656006
156, 336805902, -2.7474796772003174, -4.529582977294922, 7.503694534301758, -5.224812030792236, 1.371681809425354, -3.799593210220337
157, 336822569, -2.7037193775177, -4.5795793533325195, 7.425499439239502, -3.06767201423645, 1.5079798698425293, -3.2914884090423584
158, 336839236, -2.824230670928955, -4.580595970153809, 7.564403533935547, 0.1275576651096344, 2.5759146213531494, -3.15075945854187
159, 336855903, -3.039219379425049, -4.53789758682251, 7.783072471618652, -0.018684465438127518, 1.3555586338043213, -5.4188408851623535
160, 336872570, -2.8869316577911377, -4.667747497558594, 7.768596649169922, -2.5031039714813232, -1.0580863952636719, -7.556784629821777
161, 336889237, -2.7222909927368164, -4.778743743896484, 7.664594650268555, -3.9906136989593506, -2.412205219268799, -6.750537395477295
162, 336905904, -2.712733030319214, -4.7204389572143555, 7.437710762023926, -2.6299757957458496, -7.683809963054955E-4, -5.101370811462402
163, 336922571, -2.6954751014709473, -4.662553787231445, 7.267497539520264, 0.018377112224698067, 1.8005216121673584, -3.7312581539154053
164, 336939238, -2.9025754928588867, -4.4995245933532715, 7.3464436531066895, -0.6631960868835449, -0.3544221520423889, -4.2393693923950195
165, 336955905, -2.8997037410736084, -4.4886908531188965, 7.49546480178833, -0.25209298729896545, -0.410968542098999, -3.737276792526245
166, 336972572, -2.675306797027588, -4.623509883880615, 7.599874019622803, 4.086179733276367, 1.5498181581497192, -5.225695610046387
167, 336989239, -2.608386754989624, -4.670464038848877, 7.704627513885498, 3.1712942123413086, 1.3121963739395142, -4.901413440704346
168, 337005906, -2.5412285327911377, -4.707220077514648, 7.70236349105835, 0.3373768925666809, -0.05807679891586304, -4.663881301879883
169, 337022573, -2.5627315044403076, -4.751931190490723, 7.599761486053467, 0.44634613394737244, 1.6836186647415161, -2.851513147354126
170, 337039240, -2.671166181564331, -4.743804454803467, 7.8565754890441895, 1.2798728942871094, 3.2868199348449707, -2.2322616577148438
171, 337055907, -2.6474015712738037, -4.753796577453613, 7.857608318328857, -1.0953912734985352, 3.107313632965088, -2.0515389442443848
172, 337072574, -2.552008867263794, -4.766434192657471, 7.729258060455322, -2.980985403060913, 3.2299985885620117, -1.5882693529129028
173, 337089241, -2.5923893451690674, -4.704344272613525, 7.25868558883667, -4.645158290863037, 2.9816832542419434, 0.5962828993797302
174, 337105908, -2.8599908351898193, -4.688271999359131, 7.551389694213867, -4.052287578582764, 6.121032238006592, 3.209137201309204
175, 337122575, -2.7277674674987793, -4.751969814300537, 7.827056884765625, -6.5498857498168945, 6.694348335266113, 2.421995162963867
176, 337139242, -2.505251884460449, -4.848386287689209, 7.632145881652832, -5.997253894805908, 7.755125045776367, 1.7016890048980713
177, 337155909, -2.723759889602661, -4.7947211265563965, 7.397336483001709, -3.319458246231079, 9.716379165649414, 1.2736238241195679
178, 337172576, -2.7927308082580566, -4.750677108764648, 7.488966941833496, -3.0222606658935547, 7.8482255935668945, 1.387472152709961
179, 337189243, -2.869504928588867, -4.679238319396973, 7.496011257171631, -2.8759217262268066, 4.905388832092285, 0.5240166187286377
180, 337205910, -2.947317123413086, -4.67976188659668, 7.340893268585205, -2.3858485221862793, 1.8865994215011597, -0.9246952533721924
181, 337222577, -3.006615161895752, -4.705425262451172, 7.312482833862305, -1.8717888593673706, -0.7185642719268799, -2.2307634353637695
182, 337239244, -2.90047550201416, -4.814150810241699, 7.478792190551758, -2.3187947273254395, -0.8260095715522766, -2.8373494148254395
183, 337255911, -2.8492178916931152, -4.832172870635986, 7.390471458435059, -0.7770637273788452, 1.1315243244171143, -2.7273430824279785
184, 337272578, -2.853537082672119, -4.798025131225586, 7.321670055389404, -0.7773582339286804, 0.7389583587646484, -2.313889741897583
185, 337289245, -2.7953014373779297, -4.831387042999268, 7.33036470413208, -1.320181131362915, 0.15738363564014435, -1.9906831979751587
186, 337305912, -2.768874406814575, -4.810332298278809, 7.379246234893799, -0.8805773854255676, 1.1371078491210938, -0.5776944756507874
187, 337322579, -2.7831947803497314, -4.75521183013916, 7.407295227050781, -1.818360686302185, 0.7426722049713135, 0.053063105791807175
188, 337339246, -2.844608783721924, -4.731081008911133, 7.453085422515869, -2.511543035507202, 0.9129839539527893, 0.3141973912715912
189, 337355913, -2.8870482444763184, -4.7618207931518555, 7.543483734130859, -2.613673686981201, 1.553820013999939, -0.1730009913444519
190, 337372580, -2.919116258621216, -4.777158737182617, 7.562282085418701, -3.0272676944732666, 2.0296976566314697, -0.7452271580696106
191, 337389247, -2.842839241027832, -4.794863700866699, 7.499017715454102, -3.7585480213165283, 1.2706266641616821, -1.047021508216858
192, 337405914, -2.706850528717041, -4.8823347091674805, 7.519202709197998, -2.5289723873138428, 1.6904575824737549, 0.8201507329940796
193, 337422581, -2.840571880340576, -4.835291862487793, 7.444887638092041, -2.6761555671691895, 1.8071485757827759, 1.3124138116836548
194, 337439248, -2.9516971111297607, -4.766884803771973, 7.29638671875, -3.1098685264587402, 2.0692691802978516, 0.840602457523346
195, 337455915, -2.904012441635132, -4.774239540100098, 7.300472259521484, -1.0517343282699585, 2.600015640258789, -0.5421696305274963
196, 337472582, -2.80705189704895, -4.863336563110352, 7.421538352966309, -0.08854309469461441, 2.3838698863983154, -0.8829978108406067
197, 337489249, -2.8102121353149414, -4.874750137329102, 7.4655585289001465, -0.7469816207885742, 2.117382764816284, 0.47886142134666443
198, 337505916, -2.8358941078186035, -4.898349761962891, 7.430434703826904, -2.2308661937713623, 0.6802796721458435, -0.48045584559440613
199, 337522583, -2.8201074600219727, -4.881947994232178, 7.382718563079834, -2.6132125854492188, 0.38403040170669556, 0.6120346784591675
200, 337539250, -2.7667393684387207, -4.900528430938721, 7.41077184677124, -3.259805202484131, -0.2307192087173462, 0.4650433659553528
201, 337555917, -2.7699716091156006, -4.878995895385742, 7.318911075592041, -3.492739677429199, 0.13923703134059906, 0.3640140891075134
202, 337572584, -2.7355356216430664, -4.912149906158447, 7.380891799926758, -2.7755839824676514, 0.3512461483478546, 1.5275861024856567
203, 337589251, -2.997328519821167, -4.759323596954346, 7.524969100952148, -0.6721925139427185, 1.1168482303619385, 1.6903166770935059
204, 337605918, -3.0786335468292236, -4.758408069610596, 7.668365478515625, 0.5376425385475159, 2.2015459537506104, -1.108453631401062
205, 337622585, -2.917253255844116, -4.9058966636657715, 7.676425457000732, -0.7712752819061279, 2.0954840183258057, -2.9466004371643066
206, 337639252, -2.78096342086792, -5.036226749420166, 7.494780540466309, -1.4915684461593628, 2.2252187728881836, -2.371211290359497
207, 337655919, -2.7371819019317627, -5.016634941101074, 7.3640618324279785, -3.7327632904052734, 0.9281018972396851, -0.6927019357681274
208, 337672586, -2.7378132343292236, -5.050687313079834, 7.24415922164917, -4.1685051918029785, -0.3937824070453644, 0.7648143768310547
209, 337689253, -2.845613718032837, -4.958485126495361, 7.127711296081543, -3.7218072414398193, -0.7085497975349426, 2.2436792850494385
210, 337705920, -2.9349403381347656, -4.9306721687316895, 7.192107200622559, -3.8848063945770264, -1.9811040163040161, 2.2957239151000977
211, 337722587, -2.8262810707092285, -4.9639177322387695, 7.126808166503906, -3.1371841430664062, -1.7671096324920654, 2.5887200832366943
212, 337739254, -2.8017096519470215, -4.8676981925964355, 7.023501873016357, -3.7162108421325684, -3.506904363632202, 3.183767795562744
213, 337755921, -2.771042585372925, -4.7938947677612305, 6.987845420837402, -3.168252944946289, -4.846409320831299, 3.297462224960327
214, 337772588, -2.7597835063934326, -4.763257026672363, 7.047924995422363, -1.6395589113235474, -5.016107082366943, 2.81909441947937
215, 337789255, -2.66048264503479, -4.821532249450684, 7.121401309967041, -1.2140036821365356, -6.2104268074035645, 1.931908369064331
216, 337805922, -2.6178736686706543, -4.90945291519165, 7.312405109405518, 0.19790294766426086, -6.226704120635986, 2.2609164714813232
217, 337822589, -2.6289072036743164, -4.990589618682861, 7.563680648803711, 1.0650466680526733, -4.429243087768555, 2.2608139514923096
218, 337839256, -2.6212499141693115, -4.983225345611572, 7.684188365936279, 1.951233148574829, -1.794938325881958, 2.853300094604492
219, 337855923, -2.7291367053985596, -4.931278228759766, 7.615508079528809, 1.366661787033081, -1.0701626539230347, 2.6221835613250732
220, 337872590, -2.7577064037323, -4.960109233856201, 7.715720176696777, 1.2828824520111084, -0.674548864364624, 2.418088436126709
221, 337889257, -2.8139684200286865, -5.003830909729004, 7.76027250289917, 0.694033682346344, 0.49997907876968384, 2.349792242050171
222, 337905924, -2.9297423362731934, -4.958040714263916, 7.679398059844971, -0.3061230182647705, 2.311309576034546, 2.7912275791168213
223, 337922591, -3.0709052085876465, -4.8447418212890625, 7.6203131675720215, 0.34271717071533203, 3.574707508087158, 3.0464324951171875
224, 337939258, -3.1359596252441406, -4.816348552703857, 7.619994163513184, 0.15026330947875977, 4.5946431159973145, 1.8529701232910156
225, 337955925, -3.1913270950317383, -4.778378963470459, 7.455865383148193, -0.06878291070461273, 5.678086280822754, 0.7112327218055725
226, 337972592, -3.2211551666259766, -4.762109756469727, 7.36121940612793, -0.4402182996273041, 5.4190778732299805, -0.5174790024757385
227, 337989259, -3.202956199645996, -4.760156631469727, 7.210514068603516, -0.05889641493558884, 5.483634948730469, -2.2395875453948975
228, 338005926, -3.0444419384002686, -4.870753765106201, 7.305797576904297, -0.0032528131268918514, 5.000361442565918, -3.1440486907958984
229, 338022593, -2.982954263687134, -4.900811195373535, 7.396077632904053, -0.6296626329421997, 3.7175042629241943, -3.137171745300293
230, 338039260, -3.0540647506713867, -4.87869119644165, 7.529630184173584, -0.590052604675293, 2.884169578552246, -4.056539535522461
231, 338055927, -2.9563846588134766, -4.924666404724121, 7.467474937438965, -2.3820323944091797, 2.4855268001556396, -4.670130252838135
232, 338072594, -2.878030300140381, -4.976792812347412, 7.315974235534668, -1.9054697751998901, 3.2884466648101807, -4.1265645027160645
233, 338089261, -2.848525285720825, -4.946345806121826, 7.29409122467041, -1.54839026927948, 3.8419883251190186, -2.912753105163574
234, 338105928, -2.846601963043213, -4.892674922943115, 7.256262302398682, -1.070918321609497, 3.352299213409424, -2.833507537841797
235, 338122595, -2.663383960723877, -4.89661979675293, 7.113759994506836, -2.7290077209472656, 1.6422927379608154, -2.050168514251709
236, 338139262, -2.487823009490967, -4.954635143280029, 7.074428558349609, -3.1279375553131104, -0.5590996146202087, -1.2010689973831177
237, 338155929, -2.5204665660858154, -4.947864532470703, 7.168443202972412, -3.2977888584136963, -1.8402854204177856, 0.24017669260501862
238, 338172596, -2.679788589477539, -4.942123889923096, 7.304449081420898, -1.5902541875839233, 0.6713153123855591, 1.2058780193328857
239, 338189263, -2.8656435012817383, -4.899260520935059, 7.2802934646606445, -2.1048388481140137, 1.0011557340621948, 0.5940161943435669
240, 338205930, -3.111905574798584, -4.845942974090576, 7.3550801277160645, -3.531376838684082, -1.844357967376709, -2.3659095764160156
241, 338222597, -3.0209968090057373, -5.067856788635254, 7.324135780334473, -4.3640265464782715, -2.1494882106781006, -4.74559211730957
242, 338239264, -2.671077013015747, -5.24959135055542, 6.936621189117432, -4.487178802490234, -2.308600664138794, -2.750112533569336
243, 338255931, -2.8080179691314697, -5.143235206604004, 6.809354782104492, -3.9790616035461426, -4.920712471008301, 0.6978884935379028
244, 338272598, -3.0427908897399902, -5.081722259521484, 7.060981273651123, -1.6471401453018188, -5.723516941070557, 0.5542781352996826
245, 338289265, -3.028691530227661, -5.1035237312316895, 7.196403503417969, 1.5461937189102173, -3.9157333374023438, 0.15699943900108337
246, 338305932, -3.0385398864746094, -5.034444332122803, 7.2009992599487305, 0.947509765625, -4.796361923217773, -0.5410810708999634
247, 338322599, -2.943563461303711, -5.101077079772949, 7.293963432312012, 0.7410203814506531, -5.109823703765869, -0.9826442003250122
248, 338339266, -2.8566460609436035, -5.075812339782715, 7.224150657653809, 1.936614751815796, -4.734162330627441, -1.0887190103530884
249, 338355933, -2.8061470985412598, -5.038646697998047, 7.273963928222656, 1.0992522239685059, -5.877871513366699, -1.0545389652252197
250, 338372600, -2.8241405487060547, -5.00266695022583, 7.43222713470459, 1.3402293920516968, -5.712196350097656, -1.946923851966858
251, 338389267, -2.6832001209259033, -5.041254997253418, 7.503063201904297, 1.572005271911621, -4.502469539642334, -2.2237205505371094
252, 338405934, -2.627047061920166, -5.035104274749756, 7.542633056640625, 1.155536413192749, -3.6021578311920166, -1.2271173000335693
253, 338422601, -2.596574068069458, -4.999204158782959, 7.592998504638672, 1.306343674659729, -2.029780864715576, -0.14113879203796387
254, 338439268, -2.7258942127227783, -4.906972885131836, 7.548095703125, 1.670607566833496, -1.4876880645751953, -0.4867693781852722
255, 338455935, -2.6122519969940186, -5.014132976531982, 7.491570949554443, 0.5895594954490662, -1.2893304824829102, -0.6456449031829834
256, 338472602, -2.6266026496887207, -5.044133186340332, 7.491581916809082, 0.44930437207221985, -0.6128478050231934, -0.16038671135902405
257, 338489269, -2.6346704959869385, -5.074917316436768, 7.407948970794678, 0.4825240671634674, 0.48622509837150574, 0.43076083064079285
258, 338505936, -2.690535068511963, -4.990799427032471, 7.330142974853516, -0.02666281908750534, 0.2939249277114868, 0.8951702117919922
259, 338522603, -2.722377061843872, -4.9744791984558105, 7.333756923675537, 0.2166001945734024, -0.15131983160972595, 0.48420166969299316
260, 338539270, -2.727158784866333, -4.986588001251221, 7.2734904289245605, 0.38771867752075195, -0.38143715262413025, 0.6287598013877869
261, 338555937, -2.7368152141571045, -4.991382598876953, 7.342502117156982, 0.139275461435318, -0.7156699895858765, 0.5970895886421204
262, 338572604, -2.7737367153167725, -4.970986843109131, 7.381865978240967, -0.021937277168035507, -0.8623667359352112, 0.09458129107952118
263, 338589271, -2.669475793838501, -5.022945404052734, 7.402182579040527, 0.2563894987106323, -1.1921815872192383, 0.46399322152137756
264, 338605938, -2.764341115951538, -4.994260311126709, 7.358447074890137, 0.3003856837749481, -1.1827688217163086, 0.5743135213851929
265, 338622605, -2.762139320373535, -4.993566989898682, 7.220627784729004, 0.2752148509025574, -1.2131327390670776, 0.2684018611907959
266, 338639272, -2.6941328048706055, -4.998574256896973, 7.257602214813232, 1.3533046245574951, -1.9728182554244995, 0.6533863544464111
267, 338655939, -2.744579792022705, -4.9942307472229, 7.419919013977051, 1.4588545560836792, -1.6955480575561523, 0.9857496619224548
268, 338672606, -2.7453365325927734, -4.992501258850098, 7.432024955749512, 0.7052904963493347, -1.3200401067733765, 0.6460739374160767
269, 338689273, -2.7419633865356445, -4.931851863861084, 7.402134895324707, 0.07719027251005173, -1.8306292295455933, 0.23510536551475525
270, 338705940, -2.701107978820801, -4.999956130981445, 7.493397235870361, 0.792245626449585, -1.2764729261398315, -0.14905311167240143
271, 338722607, -2.7158782482147217, -4.993101596832275, 7.4479780197143555, 1.0066430568695068, -0.3634057641029358, -0.1847187727689743
272, 338739274, -2.729559898376465, -5.02703332901001, 7.389464378356934, -0.22522525489330292, -0.9946946501731873, -0.2552817761898041
273, 338755941, -2.672724962234497, -5.030640125274658, 7.439487457275391, -0.4183194041252136, -0.6502295732498169, 0.08379194140434265
274, 338772608, -2.7314419746398926, -4.998353958129883, 7.479136943817139, -1.0941104888916016, -0.8929740190505981, -0.02380700595676899
275, 338789275, -2.6555418968200684, -5.048779010772705, 7.502190589904785, -0.9210968017578125, 0.08509179949760437, -0.10209222882986069
276, 338805942, -2.680330753326416, -4.992976188659668, 7.403586387634277, -0.1984984129667282, 1.6541129350662231, 0.7400724291801453
277, 338822609, -2.7451682090759277, -4.931765079498291, 7.421988487243652, -0.03423137217760086, 1.079415202140808, 0.3272598385810852
278, 338839276, -2.706543445587158, -4.953183174133301, 7.40000057220459, -0.9544315338134766, 0.2153835892677307, -0.5448461174964905
279, 338855943, -2.672368049621582, -4.986506938934326, 7.3127875328063965, -1.2569561004638672, -0.4595302641391754, -0.7591092586517334
280, 338872610, -2.650195598602295, -4.994172096252441, 7.245593547821045, -1.1006929874420166, -0.2931373715400696, -0.41712847352027893
281, 338889277, -2.6517436504364014, -4.992539882659912, 7.2153096199035645, -0.11222203820943832, -0.329571396112442, -0.46423014998435974
282, 338905944, -2.7333993911743164, -4.973875999450684, 7.313406467437744, 0.20583006739616394, -1.4183801412582397, -0.7179239392280579
283, 338922611, -2.8013806343078613, -4.972239971160889, 7.3073577880859375, -0.8563733696937561, -2.732426881790161, -1.404549241065979
284, 338939278, -2.6389739513397217, -5.089600086212158, 7.323392868041992, -1.266022801399231, -3.2712793350219727, -0.9678269028663635
285, 338955945, -2.669450044631958, -5.030189037322998, 7.053061485290527, 0.1033792644739151, -2.782179594039917, 0.08372151106595993
286, 338972612, -2.63914155960083, -5.013103485107422, 6.895331859588623, 0.4374713599681854, -5.341823577880859, 0.2641758322715759
287, 338989279, -2.619856357574463, -4.965209484100342, 7.010104179382324, 1.5516880750656128, -6.952927112579346, 0.3027869462966919
288, 339005946, -2.5446906089782715, -4.9831132888793945, 7.299892902374268, 1.9883205890655518, -7.393542289733887, -0.22959227859973907
289, 339022613, -2.4671318531036377, -5.049666881561279, 7.503226280212402, 2.230552911758423, -7.4631829261779785, -0.20934543013572693
290, 339039280, -2.451735496520996, -5.0838165283203125, 7.8247222900390625, 1.4954041242599487, -7.253440856933594, 0.09109797328710556
291, 339055947, -2.4202980995178223, -5.110505104064941, 7.876769065856934, 0.9441545605659485, -4.890847682952881, 0.6685491800308228
292, 339072614, -2.503861665725708, -5.091256618499756, 7.820786952972412, 0.9567047357559204, -1.7826054096221924, 1.558846354484558
293, 339089281, -2.6507105827331543, -5.022993564605713, 7.730013847351074, -0.15521293878555298, -0.24307730793952942, 1.8892244100570679
294, 339105948, -2.7913990020751953, -4.981433391571045, 7.725335121154785, -1.685046672821045, -0.5524274706840515, 0.8584800362586975
295, 339122615, -2.7284066677093506, -5.007214069366455, 7.607766628265381, -3.8318142890930176, -0.9321615099906921, -0.535830557346344
296, 339139282, -2.6964306831359863, -4.985020637512207, 7.411148548126221, -6.155564785003662, -1.5725430250167847, -0.8304021954536438
297, 339155949, -2.598360300064087, -4.996460914611816, 7.371643543243408, -8.035473823547363, -3.5599865913391113, -0.9943748116493225
298, 339172616, -2.506253957748413, -5.0470290184021, 7.3471808433532715, -6.62207555770874, -3.482713460922241, -0.23699435591697693
299, 339189283, -2.5583457946777344, -4.984900951385498, 7.397352695465088, -8.785530090332031, -5.387876510620117, 0.07744643092155457
300, 339205950, -2.4549314975738525, -5.042725086212158, 7.464452266693115, -12.758503913879395, -8.756196975708008, -0.4179227948188782
301, 339222617, -2.3908019065856934, -5.119688034057617, 7.391817569732666, -13.60776138305664, -10.942845344543457, -0.7027748227119446
302, 339239284, -2.3130483627319336, -5.220869541168213, 7.434345245361328, -12.777226448059082, -10.13583755493164, 0.05427335575222969
303, 339255951, -2.305328845977783, -5.260159015655518, 7.252171993255615, -4.862020492553711, 0.7599800825119019, 1.9170212745666504
304, 339272618, -2.5035951137542725, -5.10164737701416, 7.009922504425049, 1.0355281829833984, 6.593921184539795, 2.1836178302764893
305, 339289285, -2.497501850128174, -5.181400775909424, 7.241634845733643, -0.10644638538360596, 2.31339693069458, 0.7826665043830872
306, 339305952, -2.4301512241363525, -5.230281352996826, 7.3382158279418945, -1.9160221815109253, -0.20885877311229706, 1.1732217073440552
307, 339322619, -2.4690914154052734, -5.198491096496582, 7.287075996398926, -2.5274100303649902, -1.2527042627334595, 0.8810191750526428
308, 339339286, -2.4381332397460938, -5.229917526245117, 7.241974830627441, -2.354947090148926, -1.066346287727356, 1.5174179077148438
309, 339355953, -2.5097367763519287, -5.170495986938477, 7.16238260269165, 0.025875231251120567, 1.1750658750534058, 1.977793574333191
310, 339372620, -2.5602359771728516, -5.150337219238281, 7.164195537567139, 0.7020568251609802, 0.46606147289276123, 1.3373286724090576
311, 339389287, -2.5150673389434814, -5.1517767906188965, 7.241992473602295, 0.2519073188304901, -1.074683427810669, 0.32016515731811523
312, 339405954, -2.463566303253174, -5.205458164215088, 7.309194564819336, 0.7936415672302246, -1.4472713470458984, 0.6558324098587036
313, 339422621, -2.5219008922576904, -5.18548059463501, 7.460141658782959, -0.276028037071228, -2.881812810897827, 0.2660711109638214
314, 339439288, -2.416609764099121, -5.239313125610352, 7.472837448120117, -1.3124715089797974, -2.7165470123291016, 0.07457777857780457
315, 339455955, -2.355109214782715, -5.203656196594238, 7.431235313415527, -1.0367894172668457, -0.8955864906311035, 0.7368454337120056
316, 339472622, -2.405677318572998, -5.187571048736572, 7.469376087188721, -0.4141189455986023, -0.10616464912891388, 1.0961147546768188
317, 339489289, -2.466110944747925, -5.183067798614502, 7.564295768737793, -0.22932328283786774, 0.9872479438781738, 1.010683536529541
318, 339505956, -2.503769636154175, -5.196993827819824, 7.4731879234313965, -0.31013140082359314, 1.8967676162719727, 0.5478364825248718
319, 339522623, -2.4965720176696777, -5.185328483581543, 7.452319145202637, -1.2317532300949097, 2.2064766883850098, 0.7707950472831726
320, 339539290, -2.5110623836517334, -5.225935459136963, 7.572741508483887, -2.9368937015533447, 2.4959259033203125, 0.5855768322944641
321, 339555957, -2.499744415283203, -5.207566261291504, 7.556612491607666, -4.0653252601623535, 3.344205856323242, 0.8429460525512695
322, 339572624, -2.460514783859253, -5.238842487335205, 7.524021625518799, -5.926868915557861, 3.156944751739502, 0.7996797561645508
323, 339589291, -2.496290683746338, -5.197582721710205, 7.396172523498535, -4.548150062561035, 5.420383453369141, 1.0623699426651
324, 339605958, -2.5238921642303467, -5.178306579589844, 7.301052570343018, -2.534633159637451, 5.750186443328857, 0.22570551931858063
325, 339622625, -2.470369815826416, -5.241715908050537, 7.296679496765137, -2.695852279663086, 4.2645463943481445, 0.3115593194961548
326, 339639292, -2.582151412963867, -5.2068305015563965, 7.278293132781982, -3.0937325954437256, 3.015780210494995, 0.34192952513694763
327, 339655959, -2.56742000579834, -5.218708515167236, 7.186825752258301, -3.27994966506958, 3.7965896129608154, 0.0502329096198082
328, 339672626, -2.6183066368103027, -5.207388877868652, 7.179020881652832, -1.716832160949707, 4.165412902832031, -0.3549024164676666
329, 339689293, -2.6444251537323, -5.228374481201172, 7.210237979888916, -2.435344934463501, 3.078319787979126, -1.1688995361328125
330, 339705960, -2.5136685371398926, -5.3372483253479, 7.23586368560791, -2.129427433013916, 3.136960506439209, -0.9719124436378479
331, 339722627, -2.4755005836486816, -5.33768892288208, 7.1384596824646, -1.9923994541168213, 2.998075485229492, -0.03679264709353447
332, 339739294, -2.5854363441467285, -5.29177188873291, 7.161346912384033, -1.0987462997436523, 3.0100491046905518, 0.3044261634349823
333, 339755961, -2.625274181365967, -5.269251823425293, 7.20281457901001, -1.3024057149887085, 3.031409978866577, 5.762856744695455E-5
334, 339772628, -2.5602874755859375, -5.3431782722473145, 7.291441917419434, -1.5736571550369263, 2.99151873588562, 0.23814049363136292
335, 339789295, -2.6178793907165527, -5.2690582275390625, 7.1932477951049805, -1.8859143257141113, 2.3491904735565186, -0.04140292480587959
336, 339805962, -2.5423574447631836, -5.322514533996582, 7.114233016967773, -1.8686386346817017, 2.0637753009796143, -0.10432052612304688
337, 339822629, -2.4836506843566895, -5.364987373352051, 7.055088996887207, -1.5280280113220215, 1.2305301427841187, 0.5738332271575928
338, 339839296, -2.586031675338745, -5.295387268066406, 7.084084510803223, -0.45101404190063477, 1.9753859043121338, 1.1172324419021606
339, 339855963, -2.6002516746520996, -5.328469753265381, 7.121574401855469, -1.2469927072525024, 0.9230688214302063, 0.7058987617492676
340, 339872630, -2.5761654376983643, -5.363101482391357, 7.129227161407471, -2.261409282684326, 0.15597495436668396, 0.9588563442230225
341, 339889297, -2.6275460720062256, -5.303986072540283, 7.064377307891846, 0.06122075393795967, 2.2361485958099365, 1.6608490943908691
342, 339905964, -2.6973838806152344, -5.249787330627441, 7.041929244995117, -0.3005138039588928, 1.107512354850769, 0.9157116413116455
343, 339922631, -2.645899772644043, -5.249804496765137, 7.07620906829834, -0.512317955493927, -0.3797594904899597, 0.27846765518188477
344, 339939298, -2.6400089263916016, -5.238809585571289, 7.144740581512451, -0.4161423444747925, -1.3698056936264038, -0.018914978951215744
345, 339955965, -2.666271924972534, -5.270563125610352, 7.328879356384277, -1.0237908363342285, -1.8433846235275269, -0.6061117649078369
346, 339972632, -2.4949302673339844, -5.421082019805908, 7.367934226989746, -0.26034027338027954, 0.6270948052406311, 0.7727031111717224
347, 339989299, -2.595755100250244, -5.3224711418151855, 7.283297538757324, 0.17378860712051392, 2.5918455123901367, 2.9764842987060547
348, 340005966, -2.6710925102233887, -5.2631354331970215, 7.203119277954102, 0.46236681938171387, 4.042766571044922, 4.1176066398620605
349, 340022633, -2.771202325820923, -5.260768890380859, 7.296316623687744, -1.4494870901107788, 2.7135062217712402, 4.24806547164917
350, 340039300, -2.7822844982147217, -5.205623149871826, 7.3652024269104, -4.570509433746338, 1.7110629081726074, 2.937988042831421
351, 340055967, -2.6839170455932617, -5.242476940155029, 7.262745380401611, -4.854964256286621, 2.6394078731536865, 1.3393839597702026
352, 340072634, -2.5216081142425537, -5.432516098022461, 7.1741251945495605, -5.754303932189941, 1.9373836517333984, 2.0664329528808594
353, 340089301, -2.6120424270629883, -5.379298686981201, 7.301013946533203, -6.295742511749268, 2.1818370819091797, 4.1223063468933105
354, 340105968, -2.767526626586914, -5.367007255554199, 7.288158416748047, -5.689350128173828, 3.670114755630493, 3.801751136779785
355, 340122635, -2.88582444190979, -5.234554290771484, 7.2629923820495605, -4.562595367431641, 5.321916580200195, 3.107762098312378
356, 340139302, -2.826493263244629, -5.337121963500977, 7.278891563415527, -4.581575393676758, 5.9832563400268555, 2.1080284118652344
357, 340155969, -2.714392900466919, -5.38710355758667, 7.110274791717529, -6.079623699188232, 5.793793201446533, 1.7933056354522705
358, 340172636, -2.6814210414886475, -5.37809419631958, 7.08938455581665, -6.7295074462890625, 4.381380081176758, 2.0398664474487305
359, 340189303, -2.7572481632232666, -5.400635242462158, 7.088597297668457, -6.744657516479492, 2.6899805068969727, 2.1824395656585693
360, 340205970, -2.6963624954223633, -5.538241386413574, 7.02008581161499, -7.281667232513428, 1.362807273864746, 0.7962158918380737
361, 340222637, -2.8350157737731934, -5.44367790222168, 6.8425421714782715, -9.321295738220215, -0.3807200491428375, 1.695874810218811
362, 340239304, -2.8038740158081055, -5.410675525665283, 6.824733734130859, -10.461461067199707, -2.326389789581299, 0.8356468081474304
363, 340255971, -2.784074306488037, -5.4686479568481445, 6.962849140167236, -8.54306697845459, -1.1859962940216064, 0.6113817095756531
364, 340272638, -2.8797662258148193, -5.46480655670166, 7.011012554168701, -5.484114170074463, 0.03659414127469063, -0.3455025255680084
365, 340289305, -2.8600001335144043, -5.460876941680908, 7.25199031829834, -6.340668678283691, 0.29798462986946106, -2.832944869995117
366, 340305972, -2.762725591659546, -5.654143810272217, 7.222204208374023, -5.478109836578369, 3.3761706352233887, -2.608295440673828
367, 340322639, -2.8089699745178223, -5.475118637084961, 6.770907878875732, -5.931952953338623, -2.197582721710205, -1.6345514059066772
368, 340339306, -2.6075336933135986, -5.666107654571533, 7.011314868927002, -5.418520450592041, -3.5032923221588135, -0.714888870716095
369, 340355973, -2.328308582305908, -5.550611972808838, 6.778190612792969, 6.482351303100586, -2.6020328998565674, -4.664661884307861
370, 340372640, -2.8931312561035156, -5.334079742431641, 7.015888690948486, 5.732168197631836, -3.7758758068084717, 0.04042325168848038
371, 340389307, -2.969269275665283, -5.42951774597168, 7.216646194458008, 6.9238128662109375, -0.8581410050392151, -5.141456604003906
372, 340405974, -2.6699459552764893, -6.040462017059326, 6.576086521148682, 0.8983592391014099, -5.3151350021362305, 3.5782675743103027
373, 340422641, -1.936111569404602, -5.992711544036865, 6.581813335418701, -9.341878890991211, -9.05844783782959, 20.16663932800293
374, 340439308, -2.6350855827331543, -5.757065773010254, 7.038784027099609, -1.903281331062317, -6.080332279205322, 14.918045043945312
375, 340455975, -3.051325559616089, -5.237791061401367, 6.935900688171387, -9.836527824401855, -9.625645637512207, 10.770662307739258
376, 340472642, -2.861671209335327, -5.272281646728516, 6.959798812866211, -20.498456954956055, -17.255420684814453, 2.456475257873535
377, 340489309, -2.613398790359497, -5.530933380126953, 7.159334182739258, -16.15959930419922, -10.75086784362793, 0.6000038981437683
378, 340505976, -2.584252119064331, -5.522686958312988, 7.0226969718933105, -5.858585834503174, -5.341285705566406, 2.072368621826172
379, 340522643, -2.5905282497406006, -5.648175239562988, 6.960923671722412, 1.9039396047592163, -2.7499594688415527, 4.28506326675415
380, 340539310, -2.7382969856262207, -5.607135772705078, 7.1527276039123535, -0.5713169574737549, -3.2491507530212402, 5.343021392822266
381, 340555977, -2.4498627185821533, -5.844180107116699, 7.204349517822266, -4.080001354217529, -1.1417887210845947, 4.111613750457764
382, 340572644, -2.4923911094665527, -5.812272548675537, 7.049705505371094, -5.002533435821533, -3.244694709777832, 3.76306414604187
383, 340589311, -2.7270140647888184, -5.617593765258789, 6.901012897491455, -2.857846260070801, -8.576919555664062, 3.8459267616271973
384, 340605978, -2.684948444366455, -5.652600288391113, 7.0680952072143555, -7.245875358581543, -9.213545799255371, 5.408707141876221
385, 340622645, -2.6298720836639404, -5.63275671005249, 7.066145896911621, -9.68836784362793, -3.254978656768799, 6.897100448608398
386, 340639312, -2.938990831375122, -5.7590556144714355, 7.023589134216309, -5.263594150543213, 7.8413166999816895, 14.197128295898438
387, 340655979, -2.665891170501709, -5.852001190185547, 6.929080486297607, -6.786910533905029, 8.913092613220215, 11.337657928466797
388, 340672646, -2.6857032775878906, -5.503846645355225, 7.180424690246582, -5.035717487335205, 11.898000717163086, 11.747910499572754
389, 340689313, -2.9371635913848877, -5.388410568237305, 6.981904029846191, -38.02975082397461, 5.044082164764404, -4.7130560874938965
390, 340705980, -2.7020139694213867, -6.482205390930176, 7.723255157470703, -15.131635665893555, 14.009700775146484, 4.541836261749268
391, 340722647, -2.1298391819000244, -3.9623680114746094, 7.617702007293701, -58.623992919921875, 17.972888946533203, 30.628637313842773
392, 340739314, -3.3071327209472656, -7.083672523498535, 6.376018047332764, -43.53898239135742, 13.409668922424316, 15.487631797790527
393, 340755981, -3.1751816272735596, -5.762442111968994, 6.333539009094238, -35.79368591308594, 2.841082811355591, 1.0129421949386597
394, 340772648, -2.5148112773895264, -5.214678764343262, 6.183650493621826, -21.6302490234375, -6.90199613571167, -7.158034324645996
395, 340789315, -3.166624069213867, -6.029331684112549, 6.4582624435424805, -19.44332504272461, -5.59629487991333, -10.66496753692627
396, 340805982, -3.4773356914520264, -6.511209011077881, 6.204097747802734, -11.029952049255371, 10.315415382385254, -5.489062309265137
397, 340822649, -3.2265706062316895, -6.251509189605713, 6.058578014373779, -13.687962532043457, 16.324222564697266, -6.975732803344727
398, 340839316, -3.209104299545288, -6.199525833129883, 6.376137733459473, -12.938365936279297, 13.750871658325195, -8.614588737487793
399, 340855983, -3.1832804679870605, -6.2672553062438965, 6.280303955078125, -25.045530319213867, 7.813414573669434, -11.066282272338867
400, 340872650, -3.089064121246338, -6.598346710205078, 6.457004547119141, -42.107208251953125, 7.489607334136963, -11.930144309997559
401, 340889317, -2.8799707889556885, -6.556501865386963, 6.381816864013672, -55.190555572509766, 10.875835418701172, -11.946901321411133
402, 340905984, -2.8001346588134766, -6.721734523773193, 6.401738166809082, -37.8881950378418, 11.116955757141113, -10.150487899780273
403, 340922651, -3.099567413330078, -7.070725917816162, 6.473442077636719, -41.836647033691406, 17.581457138061523, -1.8775908946990967
404, 340939318, -3.151780843734741, -7.046207904815674, 6.280750751495361, -60.32451248168945, 29.5734806060791, 6.167144775390625
405, 340955985, -2.865426540374756, -6.724396705627441, 5.803387641906738, -73.88325500488281, 30.153127670288086, 9.624581336975098
406, 340972652, -2.9824957847595215, -6.7750959396362305, 5.146087169647217, -59.10136032104492, 23.215852737426758, 16.89199447631836
407, 340989319, -3.4121997356414795, -7.454247951507568, 4.950770854949951, -60.07693099975586, 35.360958099365234, 15.378198623657227
408, 341005986, -3.4692182540893555, -7.34957218170166, 4.731480121612549, -65.07513427734375, 52.160728454589844, 8.623977661132812
409, 341022653, -2.5020809173583984, -6.139894008636475, 4.297458648681641, -78.92866516113281, 42.65168762207031, 4.274028301239014
410, 341039320, -2.8896822929382324, -7.123409271240234, 5.653659343719482, -36.62744903564453, 17.259443283081055, -4.9821600914001465
411, 341055987, -3.3105998039245605, -7.760781764984131, 5.547849178314209, -24.006357192993164, -6.4056501388549805, -10.02184009552002
412, 341072654, -4.891822338104248, -9.722641944885254, 5.322222709655762, -6.448004722595215, -24.20987892150879, -16.490161895751953
413, 341089321, -3.7404394149780273, -9.118926048278809, 3.577773094177246, 58.113914489746094, -33.255104064941406, -108.23741149902344
414, 341105988, -2.205432415008545, -5.774272441864014, 6.5217814445495605, 34.65351104736328, -3.1867268085479736, -124.14328002929688
415, 341122655, -3.3426644802093506, -8.361348152160645, 5.607729434967041, -13.626749038696289, 11.731378555297852, -84.29269409179688
416, 341139322, -0.5852454900741577, -5.64235782623291, 6.17404842376709, -36.01641845703125, 16.146421432495117, -12.087075233459473
417, 341155989, -2.7036335468292236, -7.633914470672607, 4.837087154388428, -17.091915130615234, 16.816558837890625, 15.964216232299805
418, 341172656, -3.8716237545013428, -9.11478328704834, 4.205767631530762, 11.978527069091797, 10.555853843688965, -26.186073303222656
419, 341189323, -1.4208842515945435, -6.353407859802246, 6.1276164054870605, -17.35831642150879, -7.652585029602051, -22.37995719909668
420, 341205990, -2.420011520385742, -8.017690658569336, 5.028785705566406, -28.397079467773438, -10.998880386352539, -16.075695037841797
421, 341222657, -3.1224477291107178, -8.06003189086914, 4.47428560256958, -2.3200676441192627, -15.3517484664917, -20.380210876464844
422, 341239324, -2.6428704261779785, -7.104329586029053, 4.8153886795043945, 27.515670776367188, -14.89825439453125, -6.0890302658081055
423, 341255991, -2.0607919692993164, -7.255543231964111, 4.787464618682861, 31.66924476623535, -14.423603057861328, -11.570744514465332
424, 341272658, -2.148911237716675, -7.260848522186279, 4.95780611038208, 13.642735481262207, -10.155720710754395, -12.071667671203613
425, 341289325, -2.3999977111816406, -7.4632368087768555, 4.845485687255859, 2.373741626739502, 0.6303225159645081, -13.145328521728516
426, 341305992, -2.2426633834838867, -7.532760143280029, 4.868648052215576, -8.967886924743652, 11.811302185058594, -8.977887153625488
427, 341322659, -2.3442373275756836, -7.774178981781006, 4.889750957489014, -10.206215858459473, 18.446800231933594, -1.2388883829116821
428, 341339326, -2.429377794265747, -8.034420013427734, 5.225785255432129, -21.18926429748535, 12.500706672668457, 0.782821774482727
429, 341355993, -2.32372784614563, -7.7038164138793945, 5.1722307205200195, -37.10563659667969, 7.3518877029418945, -2.552664279937744
430, 341372660, -2.478529691696167, -8.033172607421875, 5.17929220199585, -52.433712005615234, 9.504521369934082, 5.6101603507995605
431, 341389327, -2.4679505825042725, -7.895824909210205, 5.0746073722839355, -73.6724853515625, 17.787391662597656, 9.257574081420898
432, 341405994, -2.482499837875366, -8.334297180175781, 5.486858367919922, -83.83748626708984, 16.76860237121582, 2.8582329750061035
433, 341422661, -2.330678939819336, -8.201408386230469, 5.1592583656311035, -92.61495208740234, 14.217838287353516, -4.50648832321167
434, 341439328, -2.26025390625, -8.155248641967773, 4.775309085845947, -90.038330078125, 10.1608247756958, -11.726978302001953
435, 341455995, -2.3257784843444824, -8.008749961853027, 3.592851400375366, -77.40086364746094, 8.852168083190918, -12.975269317626953
436, 341472662, -2.4825315475463867, -8.207379341125488, 2.3704216480255127, -60.48325729370117, 1.1695681810379028, -11.1990966796875
437, 341489329, -2.2472243309020996, -8.388688087463379, 2.5475616455078125, -54.11869812011719, 5.479556560516357, -8.146245002746582
438, 341505996, -2.0073604583740234, -8.248637199401855, 2.513479471206665, -41.510169982910156, 9.252764701843262, -9.63559341430664
439, 341522663, -2.0415797233581543, -8.287140846252441, 2.292703151702881, -25.24557113647461, 11.135130882263184, -13.651406288146973
440, 341539330, -2.0931107997894287, -8.60118293762207, 1.8131136894226074, -6.655545711517334, 11.046599388122559, -15.604508399963379
441, 341555997, -2.058889389038086, -8.63977336883545, 1.5557880401611328, 5.419529438018799, 6.903990745544434, -11.735875129699707
442, 341572664, -2.167233467102051, -8.587032318115234, 1.2722960710525513, 19.790332794189453, 2.62080454826355, -10.675071716308594
443, 341589331, -2.053201675415039, -8.395398139953613, 1.5650503635406494, 36.893001556396484, -3.4417498111724854, -11.241716384887695
444, 341605998, -1.9491796493530273, -8.426193237304688, 2.181697130203247, 52.61516571044922, -4.042301654815674, -11.81082820892334
445, 341622665, -2.2156131267547607, -8.469076156616211, 2.345486640930176, 72.41798400878906, 0.6585214138031006, -10.490840911865234
446, 341639332, -2.2669880390167236, -8.045846939086914, 2.5299642086029053, 86.69647216796875, 3.7346441745758057, -13.259414672851562
447, 341655999, -1.959867238998413, -7.958969593048096, 2.6413025856018066, 97.41596221923828, 1.4571497440338135, -13.586143493652344
448, 341672666, -1.617760181427002, -7.775861740112305, 2.917630672454834, 114.65726470947266, -19.267305374145508, 4.126652717590332
449, 341689333, -1.646891713142395, -7.702761650085449, 3.1207191944122314, 134.8798370361328, -26.567848205566406, 8.76858901977539
450, 341706000, -1.8488245010375977, -7.430628776550293, 4.210566520690918, 156.44931030273438, -31.151052474975586, 9.95251178741455
451, 341722667, -1.8613966703414917, -6.985679626464844, 4.793941497802734, 168.63340759277344, -37.070560455322266, 12.516921997070312
452, 341739334, -1.7427195310592651, -6.583832740783691, 5.415860176086426, 170.4271697998047, -38.3927001953125, 10.371502876281738
453, 341756001, -1.7211108207702637, -6.200802326202393, 5.436924934387207, 170.95321655273438, -44.78556823730469, 18.23666763305664
454, 341772668, -1.8408329486846924, -6.811105728149414, 6.184669017791748, 175.85595703125, -40.750370025634766, 3.9093637466430664
455, 341789335, -1.8445106744766235, -6.080565452575684, 6.685061931610107, 164.38230895996094, -48.48427963256836, 5.074484348297119
456, 341806002, -1.7840650081634521, -5.531607151031494, 6.888546943664551, 145.6726531982422, -44.936790466308594, 2.241070508956909
457, 341822669, -1.7393772602081299, -5.179426193237305, 7.789396286010742, 124.50759887695312, -39.06832504272461, 0.5694941282272339
458, 341839336, -1.4118562936782837, -5.097743034362793, 7.856908321380615, 108.99858093261719, -28.56055450439453, 5.381014823913574
459, 341856003, -1.30416738986969, -4.9044084548950195, 7.895964622497559, 95.97313690185547, -22.612823486328125, 7.28114128112793
460, 341872670, -1.2909101247787476, -4.727413654327393, 8.150989532470703, 105.11649322509766, -27.831073760986328, 6.580619812011719
461, 341889337, -1.0024290084838867, -4.252755641937256, 8.317340850830078, 120.83673095703125, -33.21569061279297, 6.550434589385986
462, 341906004, -0.8695600032806396, -4.378309726715088, 9.196149826049805, 114.94058227539062, -44.40391159057617, -0.37981823086738586
463, 341922671, 1.1522477865219116, -1.140960693359375, 9.466472625732422, 97.22286987304688, -46.53266525268555, 15.456687927246094
464, 341939338, -2.4132981300354004, -4.696902751922607, 9.860212326049805, 117.60580444335938, -24.59797477722168, 31.01180076599121
465, 341956005, -2.109001398086548, -3.816046953201294, 9.2947359085083, 90.7878646850586, -64.59223937988281, 33.76634216308594
466, 341972672, -0.6075028777122498, -3.4882586002349854, 10.135069847106934, 100.62911987304688, -67.47608184814453, -5.373642921447754
467, 341989339, 0.0718739703297615, -1.922662377357483, 9.188157081604004, 71.15354919433594, -35.265586853027344, 3.4086906909942627
468, 342006006, -0.8807668685913086, -3.3878281116485596, 9.280614852905273, 66.33014678955078, -1.6780298948287964, 10.368249893188477
469, 342022673, -0.4328398108482361, -2.09999418258667, 9.118990898132324, 53.38261032104492, 9.170040130615234, 9.775697708129883
470, 342039340, -1.4578269720077515, -3.812540292739868, 10.29465389251709, 42.29909896850586, -8.475872993469238, -0.3848460912704468
471, 342056007, -1.1855783462524414, -3.0342557430267334, 10.093212127685547, 19.715322494506836, -23.515687942504883, -6.920536994934082
472, 342072674, -0.7967267632484436, -2.5749635696411133, 10.037899017333984, 0.0635131299495697, -13.648542404174805, -5.8769917488098145
473, 342089341, -0.7017503976821899, -2.46684193611145, 9.647578239440918, -3.0889689922332764, -0.02502361126244068, -2.3583407402038574
474, 342106008, -0.3988077640533447, -2.3460030555725098, 9.240813255310059, -8.353572845458984, 9.393083572387695, -2.218111753463745
475, 342122675, -0.420585572719574, -2.2971510887145996, 9.058780670166016, -14.354532241821289, 16.34975814819336, -4.247014999389648
476, 342139342, -0.5573147535324097, -2.494554042816162, 8.821717262268066, -13.137022018432617, 18.845653533935547, -3.312317371368408
477, 342156009, -0.726103663444519, -2.976736307144165, 8.949220657348633, -18.032146453857422, 20.79415512084961, -6.2036051750183105
478, 342172676, -1.080933928489685, -3.2329330444335938, 9.103806495666504, -26.899017333984375, 18.301239013671875, -11.587464332580566
479, 342189343, -0.5589262247085571, -2.54392409324646, 9.02821159362793, -20.755016326904297, 9.534917831420898, -9.188165664672852
480, 342206010, -0.8292418718338013, -2.2978782653808594, 8.085674285888672, -25.835020065307617, 12.81660270690918, 1.25770902633667
481, 342222677, -0.9562587141990662, -2.869676351547241, 8.782629013061523, -24.892885208129883, 17.92066764831543, -5.724853515625
482, 342239344, -0.461500346660614, -2.388448715209961, 9.048017501831055, -19.173828125, 16.603246688842773, -6.08424711227417
483, 342256011, -0.4493617117404938, -2.5076639652252197, 9.272072792053223, -26.224018096923828, 17.835386276245117, -0.21673545241355896
484, 342272678, -1.1185015439987183, -3.430692195892334, 9.437965393066406, -28.040769577026367, 14.97844409942627, -0.31469154357910156
485, 342289345, -1.7270128726959229, -4.0779643058776855, 6.811284065246582, -29.694364547729492, 25.03558349609375, -14.726186752319336
486, 342306012, -1.1827861070632935, -3.6200201511383057, 7.4653520584106445, -42.52010726928711, 57.073020935058594, -22.45311164855957
487, 342322679, -0.863912045955658, -3.0978047847747803, 7.6281514167785645, -42.142608642578125, 62.236568450927734, -10.421403884887695
488, 342339346, -1.161008358001709, -3.384831190109253, 8.186296463012695, -45.21617889404297, 51.22035598754883, -4.315195560455322
489, 342356013, -1.746246576309204, -3.827085018157959, 8.896500587463379, -39.10029220581055, 32.97869110107422, -8.802578926086426
490, 342372680, -2.393871784210205, -3.687922954559326, 8.40046215057373, -30.957408905029297, 11.011080741882324, -11.480019569396973
491, 342389347, -1.255152702331543, -3.6469168663024902, 7.890381336212158, -37.84454345703125, 2.63352632522583, 16.150121688842773
492, 342406014, -1.0838862657546997, -3.9078731536865234, 7.9954609870910645, -48.63530349731445, 8.52313232421875, 12.55290412902832
493, 342422681, -1.2000385522842407, -3.3679375648498535, 8.832098960876465, -51.129539489746094, -8.959012985229492, -8.261252403259277
494, 342439348, -1.9429657459259033, -3.7950761318206787, 9.213448524475098, -38.53488540649414, -37.624202728271484, 11.28078556060791
495, 342456015, -0.8797038793563843, -3.9055120944976807, 8.506185531616211, -10.127351760864258, -24.154029846191406, 8.608687400817871
496, 342472682, -1.6549040079116821, -3.6873435974121094, 8.865550994873047, 6.8832526206970215, 2.42464542388916, 0.0028622192330658436
497, 342489349, -1.548740267753601, -3.9183878898620605, 9.600958824157715, 22.38341522216797, 14.384505271911621, 15.711694717407227
498, 342506016, -3.1983642578125, -3.775270700454712, 9.716954231262207, 9.683185577392578, 9.242210388183594, 26.41319465637207
499, 342522683, 0.01186332106590271, -4.199481010437012, 8.817585945129395, -2.2266478538513184, 3.9247312545776367, 31.71540641784668
500, 342539350, -1.4188239574432373, -3.9153857231140137, 8.812938690185547, -24.831308364868164, 37.11075973510742, 11.69775390625
501, 342556017, -3.791395664215088, -2.81962513923645, 8.848722457885742, -29.767221450805664, 14.722238540649414, 12.89628791809082
502, 342572684, 0.32165223360061646, -4.8572096824646, 7.057615280151367, -15.672117233276367, -1.9339956045150757, 26.21795654296875
503, 342589351, -1.837877869606018, -4.246124267578125, 7.773489952087402, -15.618959426879883, 17.595632553100586, 14.195882797241211
504, 342606018, -1.7853100299835205, -4.175413131713867, 8.277490615844727, -18.79063606262207, 1.3696991205215454, 11.962221145629883
505, 342622685, -1.6531982421875, -4.0548248291015625, 8.033817291259766, -21.95774269104004, -11.598555564880371, 11.868124008178711
506, 342639352, -1.652405858039856, -4.161185264587402, 7.972833633422852, -30.075918197631836, -8.702985763549805, 11.408843040466309
507, 342656019, -2.6304526329040527, -5.519703388214111, 7.7707743644714355, -16.390810012817383, -19.089794158935547, 9.465099334716797
508, 342672686, -1.0610136985778809, -3.227158784866333, 8.117476463317871, -44.16482925415039, -6.424792289733887, 17.52349853515625
509, 342689353, -1.5368913412094116, -4.548584461212158, 7.734164237976074, -40.957576751708984, -5.822689533233643, 13.76476001739502
510, 342706020, -1.858670949935913, -5.731863498687744, 7.3220624923706055, -36.01398468017578, -22.164379119873047, 19.02069664001465
511, 342722687, -1.4855659008026123, -3.581092357635498, 8.178182601928711, -38.95065689086914, -14.270466804504395, 13.433727264404297
512, 342739354, -1.8742600679397583, -4.959683895111084, 7.913309097290039, -25.991106033325195, 1.8905267715454102, 25.223831176757812
513, 342756021, -2.368381977081299, -4.348742961883545, 7.460525989532471, -46.701866149902344, -7.620418071746826, 11.750903129577637
514, 342772688, -1.3574095964431763, -5.794974327087402, 7.307633876800537, -43.710540771484375, -14.526437759399414, 14.7310791015625
515, 342789355, -1.8989053964614868, -4.508361339569092, 7.572416305541992, -40.20024490356445, -17.09166145324707, 25.58724021911621
516, 342806022, -2.019277334213257, -4.929682731628418, 6.970318794250488, -37.28790283203125, -18.361433029174805, -4.582421779632568
517, 342822689, -2.0454485416412354, -4.843993186950684, 7.3542351722717285, -32.68240737915039, -24.6793212890625, 31.564472198486328
518, 342839356, -1.8279482126235962, -4.828469753265381, 8.005704879760742, -57.29448699951172, 3.0667219161987305, -9.940561294555664
519, 342856023, -1.6250536441802979, -5.090657711029053, 7.607264518737793, -47.60172653198242, -30.928855895996094, -10.030753135681152
520, 342872690, -0.7339038252830505, -5.798610687255859, 7.570414066314697, -42.814476013183594, -40.46692657470703, -2.3795387744903564
521, 342889357, -1.2451508045196533, -5.7064056396484375, 7.4461517333984375, -48.4217414855957, -29.18213653564453, 12.686869621276855
522, 342906024, -1.6612472534179688, -5.718326091766357, 7.6097869873046875, -55.40435028076172, -24.585845947265625, 14.769917488098145
523, 342922691, -1.4007989168167114, -5.624485492706299, 8.23202133178711, -63.70520782470703, -19.508943557739258, 15.67374038696289
524, 342939358, -1.0539861917495728, -5.736344814300537, 8.884033203125, -84.3670883178711, -13.763435363769531, 20.406639099121094
525, 342956025, -1.102184534072876, -5.830639362335205, 8.846658706665039, -110.18791961669922, -11.946242332458496, 25.220239639282227
526, 342972692, -1.5849711894989014, -5.831113815307617, 8.088056564331055, -132.51182556152344, -15.571675300598145, 29.55338478088379
527, 342989359, -2.3613779544830322, -5.678795337677002, 6.548563480377197, -139.22689819335938, -21.217788696289062, 18.65640640258789
528, 343006026, -2.488419771194458, -6.697371959686279, 5.453705787658691, -133.3428955078125, -24.864187240600586, 5.900204181671143
529, 343022693, -1.4715228080749512, -7.106799125671387, 3.9349770545959473, -119.32833862304688, -28.188371658325195, -0.3572392165660858
530, 343039360, -1.1339421272277832, -7.679768085479736, 4.073602199554443, -99.96900939941406, -9.820143699645996, 2.303412914276123
531, 343056027, -1.1652766466140747, -7.897812843322754, 3.956212282180786, -81.096923828125, 1.7181717157363892, 0.7208796739578247
532, 343072694, -1.3126256465911865, -7.880798816680908, 4.175693988800049, -60.846031188964844, 4.8968987464904785, 4.156810283660889
533, 343089361, -1.3979426622390747, -7.7821245193481445, 4.418747901916504, -45.712982177734375, -0.5982529520988464, 2.9491889476776123
534, 343106028, -1.4979451894760132, -7.833447456359863, 4.285226821899414, -45.58409881591797, -7.929738521575928, 0.7518344521522522
535, 343122695, -1.5819374322891235, -7.927492141723633, 4.245791912078857, -40.312686920166016, -5.843725681304932, 2.4824421405792236
536, 343139362, -1.4246221780776978, -8.073673248291016, 4.121816158294678, -29.449270248413086, 2.693241596221924, -6.874227523803711
537, 343156029, -1.451249599456787, -7.991459369659424, 4.258256912231445, -24.949913024902344, -13.019214630126953, -0.4108544886112213
538, 343172696, -1.0449069738388062, -8.268754959106445, 4.3363037109375, -18.221742630004883, -8.073325157165527, -4.496545791625977
539, 343189363, -1.1208237409591675, -8.243282318115234, 4.5519795417785645, -7.788671493530273, -5.244688510894775, -4.053749084472656
540, 343206030, -0.9852379560470581, -7.75748872756958, 4.682209491729736, -5.343166828155518, 1.3608378171920776, -25.029800415039062
541, 343222697, -0.9478191137313843, -8.735846519470215, 4.724207878112793, -1.6577821969985962, 3.9408795833587646, -7.328486442565918
542, 343239364, -1.3336436748504639, -8.234017372131348, 4.501415252685547, -2.1799869537353516, 6.413607120513916, -3.883756637573242
543, 343256031, -1.6536550521850586, -7.696400165557861, 4.619235515594482, 1.3010953664779663, 9.520673751831055, -20.085540771484375
544, 343272698, -1.0355474948883057, -8.724444389343262, 4.072077751159668, 8.884751319885254, 10.893694877624512, -40.56064987182617
545, 343289365, -2.2535033226013184, -7.47102165222168, 4.5709052085876465, 11.349555969238281, 8.05617904663086, -20.48067855834961
546, 343306032, 0.19508475065231323, -8.838674545288086, 4.0334906578063965, 19.098649978637695, 7.793546676635742, -59.051658630371094
547, 343322699, -1.0514439344406128, -7.936056613922119, 4.6401543617248535, 10.919376373291016, 7.537691116333008, -9.203356742858887
548, 343339366, -1.2090303897857666, -8.127754211425781, 4.476624965667725, 9.865435600280762, 5.960508346557617, -7.999466419219971
549, 343356033, -1.4058595895767212, -7.998978137969971, 4.400858402252197, 14.45198917388916, 4.692847728729248, -9.54425048828125
550, 343372700, -0.7479724287986755, -8.062862396240234, 5.044995307922363, 7.734533786773682, 2.7693169116973877, -9.808016777038574
551, 343389367, -0.7239423990249634, -8.177391052246094, 5.241322994232178, 4.291025638580322, 7.91750431060791, -6.459486484527588
552, 343406034, -0.9794003367424011, -8.155461311340332, 4.927644729614258, 7.810848236083984, 10.880249977111816, -4.906167507171631
553, 343422701, -1.0071839094161987, -8.18663501739502, 4.909823894500732, 16.536657333374023, 13.618123054504395, -5.414226531982422
554, 343439368, -0.8641141653060913, -8.14271068572998, 4.998122692108154, 18.076139450073242, 13.550727844238281, -8.385436058044434
555, 343456035, -0.7803840637207031, -7.833397388458252, 5.3110270500183105, 14.569372177124023, 12.11679744720459, -13.47995376586914
556, 343472702, -0.5655972361564636, -7.7634782791137695, 5.5225677490234375, 6.839578151702881, 9.925374031066895, -14.58671760559082
557, 343489369, -0.5661321878433228, -7.987373352050781, 5.346029281616211, 8.943314552307129, 4.760654926300049, -12.4331693649292
558, 343506036, -0.8556081652641296, -8.088606834411621, 4.8830485343933105, 17.475971221923828, -0.09079714864492416, -8.474716186523438
559, 343522703, -0.9119337201118469, -8.111122131347656, 4.8871259689331055, 22.072254180908203, -4.2040510177612305, -6.129399299621582
560, 343539370, 0.1546664983034134, -7.543540000915527, 5.207854270935059, 7.088582515716553, 12.665661811828613, 0.04224177449941635
561, 343556037, -2.3738996982574463, -8.039895057678223, 5.902490139007568, -4.368542671203613, 0.7351061701774597, -31.19361686706543
562, 343572704, 0.18621565401554108, -8.091525077819824, 4.883147239685059, 13.72067642211914, 5.038592338562012, -4.24191427230835
563, 343589371, -0.3945109248161316, -7.848715782165527, 4.4816484451293945, 5.767245769500732, 9.083195686340332, -2.5906999111175537
564, 343606038, -1.072583556175232, -7.973748207092285, 4.1283183097839355, 12.292558670043945, 14.72159481048584, -8.5011625289917
565, 343622705, -0.8077417612075806, -7.933473110198975, 4.3392462730407715, 35.0042724609375, 11.128081321716309, -10.055340766906738
566, 343639372, -0.6044996380805969, -7.809331893920898, 4.620355606079102, 54.91162109375, 18.674156188964844, -9.855001449584961
567, 343656039, -0.9199635982513428, -7.398977756500244, 5.078663349151611, 74.56378936767578, 23.73395347595215, -6.102140426635742
568, 343672706, -0.8087825179100037, -7.483822822570801, 5.8116350173950195, 86.18739318847656, 22.34064483642578, -3.942366123199463
569, 343689373, -0.9246914982795715, -7.436593055725098, 5.937509536743164, 92.05896759033203, 7.90266227722168, -10.962199211120605
570, 343706040, -0.4523543417453766, -7.124917507171631, 6.024504661560059, 83.95130920410156, 18.138147354125977, -12.487059593200684
571, 343722707, -0.5531105995178223, -7.320390224456787, 6.049826145172119, 87.64144897460938, 33.60498809814453, -21.546092987060547
572, 343739374, -0.17671459913253784, -6.994322299957275, 6.128330707550049, 89.23677825927734, 67.64082336425781, -21.677215576171875
573, 343756041, -0.9173818826675415, -6.8352437019348145, 6.469753742218018, 89.83965301513672, 87.10006713867188, -8.523252487182617
574, 343772708, -1.198509693145752, -6.3994855880737305, 6.795258522033691, 89.65521240234375, 87.61266326904297, -4.994279384613037
575, 343789375, -0.8987785577774048, -6.613945007324219, 6.8786845207214355, 94.16558837890625, 81.79234313964844, -1.5316336154937744
576, 343806042, -0.6448531150817871, -6.470948696136475, 6.617852687835693, 98.68212127685547, 96.96267700195312, -7.042412281036377
577, 343822709, -1.3694461584091187, -6.204972267150879, 6.287504196166992, 107.48995208740234, 111.12623596191406, -4.354013442993164
578, 343839376, -2.2283473014831543, -5.7320661544799805, 6.653873443603516, 109.16413116455078, 98.09431457519531, 0.9856836199760437
579, 343856043, -2.417389392852783, -5.178991317749023, 7.338204383850098, 103.08321380615234, 88.32466888427734, -0.44970494508743286
580, 343872710, -1.270122766494751, -5.2394256591796875, 7.70919132232666, 104.42115783691406, 89.03571319580078, -4.55089807510376
581, 343889377, -1.1278828382492065, -4.9748945236206055, 7.55748176574707, 110.00338745117188, 120.93500518798828, -4.726860046386719
582, 343906044, -2.9769749641418457, -4.366912841796875, 7.487607479095459, 108.03706359863281, 124.95506286621094, 1.1108462810516357
583, 343922711, -4.487936496734619, -3.7070047855377197, 8.014646530151367, 91.74800109863281, 88.81681060791016, 2.4183170795440674
584, 343939378, -4.964027404785156, -3.43220853805542, 8.569165229797363, 63.11932373046875, 31.38675880432129, -2.7255337238311768
585, 343956045, -4.2326555252075195, -3.574451446533203, 8.587885856628418, 34.75077438354492, 7.654786109924316, 0.8961026668548584
586, 343972712, -3.811617612838745, -3.750953197479248, 8.13806438446045, 22.99697494506836, -0.6077393293380737, 1.714306116104126
587, 343989379, -3.6448605060577393, -3.9655213356018066, 7.34952449798584, 21.55529022216797, -8.694194793701172, 1.57869291305542
588, 344006046, -3.8368356227874756, -3.9993045330047607, 6.330160617828369, 28.169248580932617, -40.78250503540039, 5.627715587615967
589, 344022713, -3.4493207931518555, -3.7034926414489746, 6.869885444641113, 27.461883544921875, -81.46544647216797, 15.10293960571289
590, 344039380, -3.2336318492889404, -3.3122920989990234, 8.430319786071777, 17.462966918945312, -113.6348648071289, 19.270387649536133
591, 344056047, -3.157749891281128, -3.342890739440918, 9.287869453430176, -1.0082062482833862, -119.97403717041016, 14.989522933959961
592, 344072714, -2.0955491065979004, -4.082803249359131, 8.297788619995117, -6.588571548461914, -104.34553527832031, 9.18674087524414
593, 344089381, -1.1716870069503784, -4.409787654876709, 7.280228137969971, 6.143947601318359, -81.60828399658203, 8.286602973937988
594, 344106048, -1.4575552940368652, -4.217443943023682, 6.556387424468994, 19.7149715423584, -84.50349426269531, 13.061659812927246
595, 344122715, -1.9204248189926147, -3.4175238609313965, 7.7226715087890625, 18.99501609802246, -122.95638275146484, 21.925247192382812
596, 344139382, -2.653510808944702, -2.684840202331543, 9.607321739196777, -12.65855598449707, -187.14207458496094, 28.04254150390625
597, 344156049, -2.5211539268493652, -2.5887703895568848, 10.274162292480469, -56.49665069580078, -241.04568481445312, 24.39582061767578
598, 344172716, -0.7887696623802185, -3.3956804275512695, 9.018253326416016, -81.92002868652344, -270.26568603515625, 24.75435447692871
599, 344189383, 1.5446245670318604, -4.523374080657959, 6.790515422821045, -75.02193450927734, -251.73899841308594, 27.600297927856445
600, 344206050, 1.757344126701355, -5.102850437164307, 4.783217430114746, -34.133785247802734, -216.0208740234375, 31.954710006713867
601, 344222717, 0.4974161386489868, -4.634878158569336, 6.217371940612793, 0.11696122586727142, -180.8764190673828, 19.603492736816406
602, 344239384, 0.4263167083263397, -4.16742467880249, 7.306753158569336, 16.361492156982422, -157.26528930664062, -7.5019683837890625
603, 344256051, 3.0887563228607178, -4.346158504486084, 8.259115219116211, 20.194799423217773, -130.29815673828125, -20.444673538208008
604, 344272718, 5.752694129943848, -4.71051549911499, 9.143866539001465, 16.964479446411133, -92.06568145751953, -9.240517616271973
605, 344289385, 4.326706409454346, -4.353193283081055, 8.673855781555176, 10.334868431091309, -67.9384536743164, 10.775836944580078
606, 344306052, 2.935133934020996, -3.967552900314331, 8.298587799072266, 3.5363736152648926, -68.41805267333984, 12.703699111938477
607, 344322719, 2.0710673332214355, -3.6714694499969482, 6.611536979675293, 5.901200771331787, -78.97808074951172, 3.7906415462493896
608, 344339386, 3.771772861480713, -4.038658618927002, 7.478735446929932, 15.84315013885498, -91.33042907714844, -8.463936805725098
609, 344356053, 5.286943435668945, -4.365701675415039, 8.81157112121582, 14.11076545715332, -61.45436096191406, 3.1242873668670654
610, 344372720, 3.9948112964630127, -4.024947166442871, 8.747804641723633, 9.233948707580566, -31.542774200439453, 9.209424018859863
611, 344389387, 3.5190541744232178, -3.941610813140869, 8.160683631896973, 8.204873085021973, -7.198119640350342, 6.420383453369141
612, 344406054, 3.1791677474975586, -3.674792766571045, 8.437955856323242, 4.640158176422119, 9.565585136413574, 0.5680066347122192
613, 344422721, 3.6623425483703613, -3.657074451446533, 8.906978607177734, -2.0419273376464844, 28.23801612854004, -7.0760416984558105
614, 344439388, 3.7549326419830322, -4.02494478225708, 8.135458946228027, 5.974573612213135, 60.00554275512695, -19.08997917175293
615, 344456055, 3.4536566734313965, -4.187335014343262, 7.436340808868408, 32.645118713378906, 115.91304016113281, -39.20532989501953
616, 344472722, 3.022313117980957, -3.952345609664917, 7.9569902420043945, 55.2713623046875, 166.4893798828125, -56.88768768310547
617, 344489389, 2.9009368419647217, -3.49576735496521, 9.318145751953125, 56.40251922607422, 200.4408721923828, -66.15618896484375
618, 344506056, 3.1944425106048584, -3.227581024169922, 10.511479377746582, 42.863975524902344, 229.98764038085938, -67.7669448852539
619, 344522723, 2.337580680847168, -2.930572271347046, 10.943485260009766, 14.517043113708496, 234.1531982421875, -56.32012176513672
620, 344539390, 1.4902483224868774, -2.899827241897583, 10.111416816711426, -10.539641380310059, 227.31480407714844, -51.2466926574707
621, 344556057, 1.194508671760559, -3.1336307525634766, 8.733735084533691, -13.41628360748291, 230.6295623779297, -52.69350051879883
622, 344572724, 0.6119630336761475, -3.242243766784668, 7.645293712615967, -0.4204555153846741, 237.80691528320312, -47.335758209228516
623, 344589391, -0.685021162033081, -3.033048152923584, 7.492895603179932, 1.0292797088623047, 203.1049346923828, -38.1020622253418
624, 344606058, -1.205217957496643, -2.983659267425537, 7.795897006988525, -7.965000629425049, 143.91705322265625, -26.7481632232666
625, 344622725, -0.5552547574043274, -3.477517604827881, 7.703938007354736, -6.8686203956604, 129.93133544921875, -22.044666290283203
626, 344639392, -1.3593196868896484, -3.5254766941070557, 7.45982551574707, 0.13677379488945007, 131.0250701904297, -14.704010963439941
627, 344656059, -2.7863001823425293, -3.137725591659546, 7.430760860443115, -2.6516575813293457, 104.5184555053711, -9.249566078186035
628, 344672726, -2.9789819717407227, -3.0067031383514404, 7.433788299560547, -14.911595344543457, 53.873992919921875, -4.416164875030518
629, 344689393, -2.656221866607666, -3.3222172260284424, 7.187188625335693, -26.95856285095215, 12.698783874511719, 0.9456045627593994
630, 344706060, -2.6004257202148438, -3.6195056438446045, 7.437679767608643, -21.554946899414062, -14.77432632446289, 7.178316116333008
631, 344722727, -2.617985486984253, -3.5427680015563965, 8.276031494140625, -25.088153839111328, -37.758201599121094, 11.22867488861084
632, 344739394, -2.57393741607666, -3.5142362117767334, 8.601231575012207, -35.873836517333984, -56.22217559814453, 14.55517292022705
633, 344756061, -2.7142603397369385, -3.623378038406372, 8.275948524475098, -45.48065948486328, -72.6677474975586, 13.183602333068848
634, 344772728, -2.709211587905884, -3.578941822052002, 8.259600639343262, -54.9119987487793, -101.00513458251953, 15.730280876159668
635, 344789395, -2.941983461380005, -3.484509229660034, 7.816455841064453, -71.37752532958984, -151.8524627685547, 20.40375518798828
636, 344806062, -1.5622406005859375, -4.131131649017334, 7.530536651611328, -74.99605560302734, -184.1853485107422, 14.396360397338867
637, 344822729, 0.9191193580627441, -4.960594177246094, 7.786084175109863, -58.359657287597656, -150.28953552246094, 15.312551498413086
638, 344839396, 0.8377781510353088, -5.154854774475098, 7.864869117736816, -34.77427673339844, -78.72966766357422, 18.697404861450195
639, 344856063, -0.22394508123397827, -4.777271747589111, 8.160998344421387, -15.568946838378906, -31.13917350769043, 13.682478904724121
640, 344872730, -0.7559002041816711, -4.46290922164917, 8.395403861999512, -13.721567153930664, -18.542938232421875, 5.696140289306641
641, 344889397, -0.013203427195549011, -4.530536651611328, 8.414959907531738, -17.909770965576172, -26.155757904052734, 0.08732040971517563
642, 344906064, 0.962736964225769, -4.538325786590576, 8.372230529785156, -24.656452178955078, -26.929241180419922, 3.3237693309783936
643, 344922731, 0.28569296002388, -5.402140140533447, 6.986823558807373, -21.15967559814453, -18.5247859954834, 7.443796157836914
644, 344939398, 0.8855394721031189, -5.135091781616211, 8.613950729370117, -3.3650503158569336, -14.505570411682129, 4.580137252807617
645, 344956065, 0.6783996224403381, -4.991204261779785, 8.019645690917969, -4.263162136077881, 17.721647262573242, 6.09114933013916
646, 344972732, 0.0849890485405922, -4.932546615600586, 7.330756664276123, 5.78646183013916, 19.576269149780273, 2.0603461265563965
647, 344989399, 0.1076163500547409, -4.740297317504883, 7.9038801193237305, 6.2518134117126465, 10.86981201171875, 2.6757538318634033
648, 345006066, -0.3432346284389496, -4.541971206665039, 7.877646446228027, -0.6516513228416443, -3.7521588802337646, 5.902928829193115
649, 345022733, -0.4675067365169525, -4.6250786781311035, 8.083189010620117, -3.0211870670318604, -15.822437286376953, 4.267803192138672
650, 345039400, -0.04543738067150116, -4.557463645935059, 8.307671546936035, -2.313378095626831, -10.62819766998291, 0.9133172035217285
651, 345056067, -0.014914973638951778, -4.760269641876221, 7.773046016693115, 1.2985190153121948, 0.5478236079216003, -0.7258638739585876
652, 345072734, -0.23338301479816437, -4.706777095794678, 7.900632381439209, 9.972660064697266, 3.701939105987549, -2.196622610092163
653, 345089401, -0.2904115915298462, -4.481496334075928, 8.464574813842773, 7.259864330291748, 4.4385986328125, -0.901772141456604
654, 345106068, -0.5828580260276794, -4.4825334548950195, 8.156194686889648, -1.9724851846694946, -0.6961787939071655, 2.4551117420196533
655, 345122735, -0.34660378098487854, -4.566341400146484, 7.998445987701416, -3.7622880935668945, -6.2498321533203125, 0.6605195999145508
656, 345139402, -0.08882661908864975, -4.727590084075928, 7.942695140838623, -1.0160045623779297, -2.9123435020446777, -0.6930797100067139
657, 345156069, -0.07735981047153473, -4.646318435668945, 8.120162010192871, 2.986677885055542, 2.828608989715576, -1.8826615810394287
658, 345172736, -0.15153177082538605, -4.594057083129883, 8.065665245056152, 3.7648699283599854, 5.974989891052246, -4.404118061065674
659, 345189403, 0.0935201570391655, -4.69359827041626, 8.050203323364258, 3.6654019355773926, 3.8722891807556152, -4.646144866943359
660, 345206070, 0.22967346012592316, -4.678106784820557, 8.337374687194824, 0.6653026938438416, 2.109769582748413, -0.4973474442958832
661, 345222737, 0.15483300387859344, -4.658926963806152, 8.475693702697754, -2.2425198554992676, 0.3337014615535736, 0.6830971240997314
662, 345239404, 0.13000260293483734, -4.761476993560791, 8.248908042907715, -2.4713950157165527, 3.457810401916504, 0.18856708705425262
663, 345256071, -0.07621908187866211, -4.821407318115234, 7.8636627197265625, 0.8088172674179077, 8.837018013000488, -1.566024899482727
664, 345272738, -0.23484861850738525, -4.795939922332764, 7.987976551055908, 2.962538719177246, 8.387911796569824, -2.6956608295440674
665, 345289405, -0.1506664752960205, -4.635708332061768, 8.2671480178833, -0.39033758640289307, 6.999342918395996, -1.5884485244750977
666, 345306072, -0.1236957460641861, -4.545392990112305, 8.216391563415527, -3.7296321392059326, 5.159742832183838, -1.6426833868026733
667, 345322739, -0.25010818243026733, -4.563541412353516, 7.989095211029053, -3.8394076824188232, 5.697770118713379, -3.3395891189575195
668, 345339406, -0.10938282310962677, -4.739060878753662, 7.914417743682861, 0.36503875255584717, 8.737091064453125, -5.675072193145752
669, 345356073, -0.08548247069120407, -4.8108086585998535, 8.025779724121094, 5.1816911697387695, 15.716665267944336, -6.095598220825195
670, 345372740, -0.21192489564418793, -4.693191051483154, 8.1434907913208, 5.749324798583984, 20.663612365722656, -5.303950786590576
671, 345389407, -0.3018190860748291, -4.625564098358154, 8.156105041503906, 2.864265203475952, 17.947771072387695, -3.8531410694122314
672, 345406074, -0.35153838992118835, -4.642189979553223, 8.126143455505371, -0.4529736042022705, 11.992870330810547, -2.8229563236236572
673, 345422741, -0.4999912679195404, -4.686896800994873, 7.955190181732178, -2.834942102432251, 8.19216537475586, -2.816296100616455
674, 345439408, -0.3642035126686096, -4.796081066131592, 7.765675067901611, -1.682511329650879, 8.381866455078125, -3.838832378387451
675, 345456075, -0.22238048911094666, -4.784851551055908, 7.808891296386719, 4.454596519470215, 15.503219604492188, -4.6526923179626465
676, 345472742, -0.33022329211235046, -4.678707122802734, 8.115433692932129, 7.471603870391846, 21.061010360717773, -4.513734817504883
677, 345489409, -0.4785057008266449, -4.506698131561279, 8.321192741394043, 5.064234733581543, 20.60914421081543, -3.827875852584839
678, 345506076, -0.2906735837459564, -4.663177013397217, 7.8447747230529785, 3.2771658897399902, 12.664495468139648, 0.3416672348976135
679, 345522743, -0.8255693912506104, -4.853423118591309, 7.162703990936279, 2.826845169067383, -18.6198673248291, -0.6311362385749817
680, 345539410, -0.1504049301147461, -5.6609272956848145, 7.138070583343506, 13.40756893157959, -22.827627182006836, 32.75429153442383
681, 345556077, -0.4573217034339905, -3.7777531147003174, 8.2562255859375, 8.68395709991455, -28.858016967773438, 6.643976211547852
682, 345572744, -0.04417118430137634, -4.558404922485352, 8.375251770019531, 2.277923345565796, -2.958510398864746, -4.224841117858887
683, 345589411, -0.469186395406723, -4.28535795211792, 8.582259178161621, -3.288658380508423, 1.566248893737793, -6.450675010681152
684, 345606078, -0.4044051468372345, -4.262275695800781, 8.31680679321289, -4.140639781951904, -0.7891404032707214, -10.080957412719727
685, 345622745, -0.2990209460258484, -4.370427131652832, 8.156763076782227, -4.018033504486084, -1.569675326347351, -13.257461547851562
686, 345639412, -0.2898760735988617, -5.6951165199279785, 7.643640041351318, 5.305140495300293, -1.0171316862106323, 0.5837070941925049
687, 345656079, -0.4873988628387451, -3.604360818862915, 8.454436302185059, -9.942097663879395, -27.010923385620117, 2.385772466659546
688, 345672746, -0.26679229736328125, -4.856120586395264, 7.772456645965576, -6.335359573364258, -13.464238166809082, -8.527745246887207
689, 345689413, -0.36729562282562256, -4.724612712860107, 7.814089298248291, -4.542479038238525, -12.683557510375977, -4.407717704772949
690, 345706080, -0.2752738296985626, -4.571816921234131, 7.732402324676514, -5.1105570793151855, -10.726901054382324, -8.1389799118042
691, 345722747, -0.1005721390247345, -4.5655083656311035, 8.038459777832031, -7.496852397918701, -3.8616533279418945, -3.9344959259033203
692, 345739414, 0.01888645440340042, -4.535800933837891, 8.347073554992676, -6.864628314971924, 0.1901935636997223, 1.400662899017334
693, 345756081, -0.19723209738731384, -4.620513916015625, 8.064075469970703, -4.885202884674072, -12.190128326416016, 1.985324740409851
694, 345772748, -0.14852869510650635, -4.710793972015381, 7.942720413208008, -3.200953483581543, -23.202180862426758, -2.4457104206085205
695, 345789415, -0.26101794838905334, -4.69345235824585, 7.915685176849365, -5.867420196533203, -22.657012939453125, -7.023822784423828
696, 345806082, -0.3801785707473755, -4.651492595672607, 8.0543212890625, -5.687647342681885, -23.94097900390625, -26.77882957458496
697, 345822749, 0.49765822291374207, -4.9052414894104, 8.157461166381836, -5.7337493896484375, -15.473807334899902, -19.986722946166992
698, 345839416, 0.37553614377975464, -4.653582572937012, 7.99654483795166, -5.992335796356201, -14.017083168029785, -21.453170776367188
699, 345856083, 0.3606826066970825, -4.909331798553467, 7.901922225952148, -0.8094786405563354, -16.065439224243164, -22.060670852661133
700, 345872750, 0.29184484481811523, -5.048500061035156, 7.962459087371826, 8.204946517944336, -16.99528694152832, -24.110877990722656
701, 345889417, 0.9134488701820374, -5.116349697113037, 7.987251281738281, 9.940814971923828, -17.705787658691406, -19.558435440063477
702, 345906084, 0.8829915523529053, -4.952012062072754, 7.774735450744629, 8.409140586853027, -15.193857192993164, -6.302242755889893
703, 345922751, 0.5602524876594543, -4.9044036865234375, 7.845577716827393, 6.574904441833496, -9.98238754272461, -1.8802036046981812
704, 345939418, 0.9711853861808777, -4.184926509857178, 7.946044921875, 4.483980655670166, 8.993305206298828, -13.273427963256836
705, 345956085, 0.29156792163848877, -4.652055263519287, 8.192459106445312, -19.789775848388672, 4.242801666259766, -21.899553298950195
706, 345972752, 0.9280403256416321, -4.605312347412109, 8.1854248046875, -23.477436065673828, 2.7413110733032227, -32.47803497314453
707, 345989419, 0.4613093137741089, -4.390790939331055, 8.467284202575684, -19.63904571533203, 2.873220443725586, -39.79189682006836
708, 346006086, 1.5280492305755615, -4.930563449859619, 7.857529163360596, -20.617000579833984, 4.876115322113037, -19.87457847595215
709, 346022753, -0.022471215575933456, -5.133786678314209, 7.511899471282959, -7.585705280303955, 5.037750244140625, -32.86053466796875
710, 346039420, 0.8708856105804443, -5.093377113342285, 6.919493675231934, 8.327261924743652, -0.24078617990016937, -36.43607711791992
711, 346056087, 0.39939141273498535, -4.896589756011963, 7.263871669769287, 50.90293502807617, -13.136295318603516, -50.37871551513672
712, 346072754, 0.9849163889884949, -4.784808158874512, 8.148277282714844, 45.815303802490234, -32.372779846191406, -56.128570556640625
713, 346089421, 1.1513010263442993, -4.553918838500977, 8.766317367553711, 35.98831558227539, -29.94085121154785, -42.88766860961914
714, 346106088, 1.1871458292007446, -4.098050594329834, 8.536360740661621, 14.961359024047852, -30.66863250732422, -39.09053421020508
715, 346122755, 1.387682557106018, -4.525609493255615, 8.464202880859375, 0.6725201606750488, -15.284236907958984, -15.554975509643555
716, 346139422, 1.3492861986160278, -4.152513027191162, 8.227731704711914, -2.20981502532959, -13.406111717224121, -13.717357635498047
717, 346156089, 1.3601744174957275, -4.324073314666748, 7.930574417114258, -7.940168380737305, -18.56844711303711, -11.28054428100586
718, 346172756, 1.6341782808303833, -4.500912666320801, 7.727051734924316, -9.847413063049316, -9.974492073059082, -9.36896800994873
719, 346189423, 1.689306616783142, -4.428830623626709, 8.136366844177246, -21.73164176940918, -2.0225744247436523, -2.027888774871826
720, 346206090, 1.8470600843429565, -4.2205657958984375, 8.1638765335083, -34.74049377441406, -1.898728609085083, 1.3376991748809814
721, 346222757, 1.685693621635437, -4.411730766296387, 8.07621955871582, -38.94377136230469, 6.001619815826416, -2.365499496459961
722, 346239424, 1.7745871543884277, -4.704906940460205, 7.548919677734375, -50.50244140625, 26.353111267089844, -12.492307662963867
723, 346256091, 1.3280562162399292, -5.329868316650391, 7.239009857177734, -7.041704177856445, 30.43429946899414, -15.058012962341309
724, 346272758, 1.4684665203094482, -4.742476940155029, 7.989770412445068, 0.6415164470672607, 22.193912506103516, -14.272173881530762
725, 346289425, 1.7353264093399048, -4.825736999511719, 7.664214134216309, 4.141397953033447, 22.500598907470703, -12.832901954650879
726, 346306092, 1.385479211807251, -4.708077430725098, 7.919467926025391, 14.315225601196289, 15.684969902038574, -8.134723663330078
727, 346322759, 1.3074809312820435, -4.810486793518066, 7.808568000793457, 21.909107208251953, 9.339799880981445, -7.236026287078857
728, 346339426, 1.2925069332122803, -4.6555986404418945, 7.647393226623535, 25.13799285888672, 13.10702133178711, -3.4561359882354736
729, 346356093, 1.243104100227356, -4.565684795379639, 7.7852463722229, 26.652048110961914, 19.01218605041504, -1.6220905780792236
730, 346372760, 1.126365303993225, -4.544243335723877, 8.16079044342041, 22.85481071472168, 21.861621856689453, 2.108643054962158
731, 346389427, 0.9904423952102661, -4.517974376678467, 8.322242736816406, 18.936296463012695, 20.17170524597168, 5.710886478424072
732, 346406094, 0.9015928506851196, -4.318313121795654, 8.311158180236816, 21.04741668701172, 21.644962310791016, 6.284666538238525
733, 346422761, 0.8093374967575073, -4.3905839920043945, 8.220087051391602, 20.824752807617188, 31.449941635131836, 5.700160980224609
734, 346439428, 0.8252878189086914, -4.317277431488037, 8.299570083618164, 26.196395874023438, 45.661067962646484, 1.6347461938858032
735, 346456095, 0.8333521485328674, -4.247978687286377, 8.646409034729004, 26.32137107849121, 52.244564056396484, -3.4192216396331787
736, 346472762, 0.35072293877601624, -4.098135948181152, 8.644789695739746, 22.218505859375, 50.065895080566406, -6.617560386657715
737, 346489429, 0.7624661326408386, -4.097916603088379, 8.328144073486328, 18.550823211669922, 55.797218322753906, -18.22995376586914
738, 346506096, 1.3468811511993408, -4.315892219543457, 8.143037796020508, 19.33761978149414, 84.31353759765625, -26.115612030029297
739, 346522763, 1.7431068420410156, -4.265820026397705, 8.087163925170898, 26.053302764892578, 123.08650970458984, -29.43400001525879
740, 346539430, 0.42592257261276245, -3.919527053833008, 8.430097579956055, 29.621137619018555, 138.25537109375, -26.417543411254883
741, 346556097, -0.9126931428909302, -3.6200735569000244, 9.117996215820312, 21.97477912902832, 114.91792297363281, -26.509422302246094
742, 346572764, -0.06875866651535034, -3.708177089691162, 9.185287475585938, 15.537076950073242, 109.8366928100586, -34.53028869628906
743, 346589431, 0.745250403881073, -3.99653959274292, 8.695332527160645, 15.248016357421875, 144.91102600097656, -37.859596252441406
744, 346606098, -0.4183187782764435, -4.0015435218811035, 8.028535842895508, 13.058938980102539, 169.60459899902344, -30.044963836669922
745, 346622765, -2.283367156982422, -3.7918829917907715, 7.817842483520508, 8.958258628845215, 145.6636505126953, -18.54555892944336
746, 346639432, -3.268399715423584, -3.4206950664520264, 8.056659698486328, 1.0378763675689697, 90.89376831054688, -10.45537281036377
747, 346656099, -2.9223246574401855, -3.590968370437622, 8.186979293823242, -7.463458061218262, 57.84529495239258, -6.56027889251709
748, 346672766, -2.6124415397644043, -3.6619925498962402, 8.007038116455078, -8.306530952453613, 48.24290084838867, -4.357198715209961
749, 346689433, -2.9671857357025146, -3.891472101211548, 7.834322929382324, -8.975994110107422, 38.780517578125, -0.9875670075416565
750, 346706100, -3.4395854473114014, -3.8499536514282227, 7.703646659851074, -11.298258781433105, 21.441848754882812, 4.683144569396973
751, 346722767, -3.729278564453125, -3.728442430496216, 7.800978660583496, -12.846951484680176, -11.767566680908203, 9.681325912475586
752, 346739434, -4.415434837341309, -3.691291332244873, 7.762960433959961, -17.079360961914062, -64.56652069091797, 17.15787696838379
753, 346756101, -4.831284523010254, -3.646827459335327, 7.640431880950928, -23.75659942626953, -136.32774353027344, 23.20949363708496
754, 346772768, -3.8955297470092773, -3.84918475151062, 7.558473587036133, -28.095211029052734, -211.0015869140625, 24.657962799072266
755, 346789435, -0.4281601309776306, -4.600776672363281, 6.512933254241943, -20.158945083618164, -206.73501586914062, 20.752397537231445
756, 346806102, 0.9918041229248047, -4.881523609161377, 5.826038837432861, 2.702136278152466, -150.56861877441406, 21.954254150390625
757, 346822769, 0.648192822933197, -4.662379264831543, 6.198359489440918, 26.980714797973633, -117.99952697753906, 24.963272094726562
758, 346839436, 0.5669533610343933, -4.104901313781738, 7.493520736694336, 38.64507293701172, -115.6203384399414, 30.894315719604492
759, 346856103, 0.06604050099849701, -3.636070489883423, 8.555235862731934, 36.38938522338867, -139.6334228515625, 36.749629974365234
760, 346872770, 0.43150845170021057, -3.4463772773742676, 9.466060638427734, 23.89232063293457, -169.3331298828125, 42.01109313964844
761, 346889437, 2.153559923171997, -3.9293265342712402, 9.299766540527344, 17.051172256469727, -154.64649963378906, 38.851600646972656
762, 346906104, 3.4774935245513916, -4.326401710510254, 8.137286186218262, 24.358543395996094, -72.16580200195312, 24.976362228393555
763, 346922771, 2.0944831371307373, -4.0238823890686035, 7.843308925628662, 39.4360237121582, -8.189135551452637, 12.18747615814209
764, 346939438, 1.2408760786056519, -3.418558120727539, 8.583066940307617, 43.58405685424805, 3.1454854011535645, 8.177596092224121
765, 346956105, 0.8406774997711182, -2.9714150428771973, 9.329568862915039, 33.199337005615234, -16.133914947509766, 15.590928077697754
766, 346972772, 0.8405946493148804, -2.773397445678711, 9.758807182312012, 19.67727279663086, -37.921566009521484, 24.81427764892578
767, 346989439, 1.1534075736999512, -2.916882276535034, 9.448718070983887, 12.744560241699219, -39.07688903808594, 21.105966567993164
768, 347006106, 1.8282220363616943, -3.284447193145752, 8.845553398132324, 16.459474563598633, 6.006345272064209, 4.17545747756958
769, 347022773, 1.1418695449829102, -3.112908124923706, 9.043733596801758, 18.318056106567383, 49.2149772644043, -7.976014137268066
770, 347039440, 0.21526184678077698, -2.7229888439178467, 9.337380409240723, 11.033770561218262, 53.973793029785156, -10.290181159973145
771, 347056107, -0.067832350730896, -2.6062076091766357, 9.58735466003418, 3.5186116695404053, 25.81641960144043, -8.487162590026855
772, 347072774, 0.5180770754814148, -2.793484926223755, 9.130247116088867, -0.3516498804092407, 11.938467025756836, -9.765605926513672
773, 347089441, 1.179484486579895, -3.383927345275879, 8.502286911010742, 3.512944459915161, 31.52667808532715, -15.784881591796875
774, 347106108, 1.9394571781158447, -3.6879630088806152, 7.761072158813477, 14.624106407165527, 90.34193420410156, -37.20037078857422
775, 347122775, 1.1400197744369507, -3.452380895614624, 8.074136734008789, 18.12015724182129, 146.3984832763672, -42.6325798034668
776, 347139442, -0.6731194853782654, -2.7986574172973633, 8.786744117736816, 8.659443855285645, 132.91717529296875, -33.80332946777344
777, 347156109, -1.080909252166748, -2.66473126411438, 9.142069816589355, -3.0892815589904785, 70.28660583496094, -16.731279373168945
778, 347172776, -0.5342646241188049, -2.73708438873291, 9.085561752319336, -11.428309440612793, 32.15401077270508, -10.416077613830566
779, 347189443, 0.2685641646385193, -3.1066150665283203, 8.921470642089844, -11.689708709716797, 50.90837097167969, -16.589929580688477
780, 347206110, -0.2054654359817505, -3.122093915939331, 8.846335411071777, -7.102787494659424, 78.7313232421875, -22.02227020263672
781, 347222777, -0.6465571522712708, -3.0496416091918945, 8.784640312194824, -4.64816427230835, 88.65631866455078, -23.05122947692871
782, 347239444, -1.0613235235214233, -2.9330270290374756, 8.859790802001953, -4.683237552642822, 78.70463562011719, -19.797361373901367
783, 347256111, -0.5600965023040771, -2.9627232551574707, 8.727303504943848, -3.378448963165283, 80.16095733642578, -23.3049259185791
784, 347272778, -0.5055312514305115, -3.077636241912842, 8.5378999710083, 0.16319012641906738, 91.3734130859375, -25.9285888671875
785, 347289445, -1.0347394943237305, -3.3156349658966064, 8.192859649658203, 3.723684787750244, 100.9914779663086, -25.425098419189453
786, 347306112, -2.0189621448516846, -3.1993680000305176, 8.314373970031738, 5.9667792320251465, 90.29243469238281, -19.073925018310547
787, 347322779, -2.5612635612487793, -2.956468343734741, 8.771592140197754, 3.4161808490753174, 58.466609954833984, -11.092140197753906
788, 347339446, -1.9679211378097534, -3.085926055908203, 8.297212600708008, 2.571014165878296, 42.71961975097656, -12.125007629394531
789, 347356113, -2.097161054611206, -3.3344345092773438, 7.8679022789001465, 6.508386135101318, 47.88593673706055, -14.32705307006836
790, 347372780, -2.7592203617095947, -3.2755565643310547, 7.946949005126953, 7.168834209442139, 42.89041519165039, -10.482878684997559
791, 347389447, -3.274646043777466, -3.181560516357422, 8.005846977233887, 4.6995954513549805, 14.895059585571289, -3.4239728450775146
792, 347406114, -3.9266507625579834, -3.179792642593384, 7.946101665496826, -1.0173128843307495, -23.493410110473633, 4.410676002502441
793, 347422781, -3.870270013809204, -3.1151411533355713, 8.00485897064209, -5.278786659240723, -67.25214385986328, 11.013505935668945
794, 347439448, -1.4153196811676025, -3.40073561668396, 7.8126444816589355, -3.2552433013916016, -82.87036895751953, 12.39970874786377
795, 347456115, 0.15132412314414978, -3.561661958694458, 7.409291744232178, 7.203334331512451, -28.242673873901367, 12.70427131652832
796, 347472782, -1.1952146291732788, -3.4184916019439697, 7.810975074768066, 21.2701473236084, 20.193859100341797, 9.62818717956543
797, 347489449, -2.7712454795837402, -2.787655830383301, 8.587306022644043, 28.19878387451172, 22.245943069458008, 4.983684539794922
798, 347506116, -3.2724931240081787, -2.6078624725341797, 9.343729019165039, 21.532703399658203, -1.4974104166030884, 1.608473777770996
799, 347522783, -2.424666404724121, -2.4936721324920654, 9.508776664733887, 13.056848526000977, -19.89407730102539, -3.702669143676758
800, 347539450, -1.5499403476715088, -2.6243464946746826, 9.320201873779297, 7.683648586273193, -17.891176223754883, -5.411279678344727
801, 347556117, -1.6563280820846558, -2.662984848022461, 9.087899208068848, 1.2009609937667847, -12.688590049743652, -2.14050555229187
802, 347572784, -1.891252040863037, -2.760697603225708, 8.884916305541992, -3.8660364151000977, -18.460834503173828, 2.6025285720825195
803, 347589451, -2.1219890117645264, -2.736257314682007, 8.702896118164062, -8.10313606262207, -31.80038833618164, 8.509079933166504
804, 347606118, -2.616403341293335, -2.760211706161499, 8.59434700012207, -10.999760627746582, -62.92386245727539, 17.187824249267578
805, 347622785, -2.9570255279541016, -2.558363914489746, 8.784380912780762, -17.061731338500977, -115.46951293945312, 29.38419532775879
806, 347639452, -2.3218278884887695, -2.5820136070251465, 8.897401809692383, -23.091686248779297, -159.0415496826172, 38.661277770996094
807, 347656119, -0.48522043228149414, -3.0599303245544434, 8.442558288574219, -27.2320613861084, -154.0457000732422, 37.61857986450195
808, 347672786, -0.02505575865507126, -3.34712290763855, 7.981168270111084, -24.795589447021484, -106.69326782226562, 29.241853713989258
809, 347689453, -0.2579275667667389, -3.6994898319244385, 7.508772850036621, -14.158709526062012, -76.20800018310547, 18.144357681274414
810, 347706120, 0.28638747334480286, -3.6428253650665283, 7.623956203460693, -1.7979049682617188, -57.10055923461914, 10.556791305541992
811, 347722787, 0.1306176781654358, -3.3005661964416504, 8.466519355773926, 3.1339457035064697, -54.35626220703125, 9.837705612182617
812, 347739454, -0.06767445057630539, -2.875079870223999, 9.217395782470703, -3.9683852195739746, -74.74532318115234, 15.893333435058594
813, 347756121, 0.06890268623828888, -2.7234604358673096, 9.532675743103027, -17.907217025756836, -103.38875579833984, 22.26276397705078
814, 347772788, 0.44520705938339233, -2.9104466438293457, 9.214944839477539, -30.085927963256836, -120.81229400634766, 27.748641967773438
815, 347789455, 1.9212822914123535, -3.668743371963501, 8.170251846313477, -24.515382766723633, -101.60747528076172, 17.590951919555664
816, 347806122, 2.897599220275879, -4.067948341369629, 7.524372100830078, -9.850564956665039, -30.785676956176758, -0.11598750948905945
817, 347822789, 2.2637548446655273, -3.9394302368164062, 7.731281280517578, 4.697329998016357, 16.227888107299805, -8.451855659484863
818, 347839456, 1.3762421607971191, -3.5021145343780518, 8.366948127746582, 10.133979797363281, 16.592947006225586, -6.281331539154053
819, 347856123, 1.2593472003936768, -3.1698224544525146, 8.914072036743164, 6.985053539276123, -8.577747344970703, 0.9126128554344177
820, 347872790, 1.6507984399795532, -3.2174975872039795, 8.969279289245605, 0.3076155185699463, -23.579917907714844, 5.48048210144043
821, 347889457, 1.9801033735275269, -3.335130453109741, 8.735845565795898, -1.2482616901397705, -17.143238067626953, 3.7185897827148438
822, 347906124, 1.7066128253936768, -3.3882675170898438, 8.609075546264648, 0.07478267699480057, -1.0564981698989868, 0.9752483367919922
823, 347922791, 1.1777479648590088, -3.2457776069641113, 8.743990898132324, 1.890095591545105, 4.7819743156433105, -1.0861963033676147
824, 347939458, 1.0004159212112427, -3.1429436206817627, 8.693817138671875, -0.9810688495635986, 2.583341598510742, -0.42582395672798157
825, 347956125, 1.2532744407653809, -3.132852554321289, 8.682726860046387, -4.194451332092285, -3.407808303833008, 1.1474426984786987
826, 347972792, 1.1912131309509277, -3.2279815673828125, 8.688847541809082, -4.854645729064941, -9.545741081237793, 4.921936988830566
827, 347989459, 1.2138886451721191, -3.2027218341827393, 8.739920616149902, -7.3956522941589355, -10.495636940002441, 4.479817867279053
828, 348006126, 1.1872057914733887, -3.29650616645813, 8.73433780670166, -9.247257232666016, -13.289968490600586, 4.659473419189453
829, 348022793, 1.3841367959976196, -3.376812219619751, 8.640713691711426, -11.086365699768066, -10.834489822387695, 4.585299015045166
830, 348039460, 1.7927788496017456, -3.6419057846069336, 8.319703102111816, -8.504059791564941, 4.03167724609375, -0.7712754607200623
831, 348056127, 1.8102236986160278, -3.8250977993011475, 8.038392066955566, -0.3101576566696167, 24.72369384765625, -7.265110015869141
832, 348072794, 1.539652943611145, -3.8057949542999268, 7.9749650955200195, 9.830597877502441, 43.89670944213867, -15.991992950439453
833, 348089461, 1.4924451112747192, -3.557370901107788, 8.272073745727539, 13.271445274353027, 60.714500427246094, -22.304344177246094
834, 348106128, 1.1522953510284424, -3.2427268028259277, 8.711814880371094, 10.42614459991455, 61.270931243896484, -19.52628517150879
835, 348122795, 0.8215103149414062, -3.1040985584259033, 9.025379180908203, 4.003932476043701, 54.860107421875, -17.60634994506836
836, 348139462, 1.0932948589324951, -3.2313332557678223, 9.047426223754883, -2.2364985942840576, 63.7725830078125, -22.172924041748047
837, 348156129, 0.8148971199989319, -3.335944652557373, 8.835021018981934, -1.4130876064300537, 78.7249755859375, -28.81382179260254
838, 348172796, 0.46525511145591736, -3.3934326171875, 8.64200210571289, 0.023071343079209328, 87.23997497558594, -31.83197021484375
839, 348189463, 0.2134624719619751, -3.339329242706299, 8.552840232849121, -0.4681627154350281, 86.37716674804688, -29.819591522216797
840, 348206130, 0.11974581331014633, -3.2746200561523438, 8.581019401550293, -0.41926538944244385, 81.89447021484375, -28.026119232177734
841, 348222797, 0.10344225913286209, -3.3855721950531006, 8.53481388092041, -0.6240708231925964, 84.09803771972656, -29.041513442993164
842, 348239464, -0.4040399491786957, -3.3364522457122803, 8.564624786376953, -0.7417515516281128, 84.83129119873047, -26.708908081054688
843, 348256131, -0.8710142970085144, -3.2975966930389404, 8.580660820007324, -0.24655236303806305, 68.2713851928711, -22.5810546875
844, 348272798, -0.8292374610900879, -3.255566120147705, 8.631025314331055, -0.8873886466026306, 56.39236068725586, -19.63863182067871
845, 348289465, -0.6087155938148499, -3.296051263809204, 8.712278366088867, -2.8546416759490967, 52.37301254272461, -15.214305877685547
846, 348306132, -0.8252836465835571, -3.4367434978485107, 8.505809783935547, -3.8389527797698975, 55.694766998291016, -13.78280258178711
847, 348322799, -1.1333048343658447, -3.462451934814453, 8.376980781555176, -2.2787351608276367, 60.502685546875, -14.8099946975708
848, 348339466, -1.592280626296997, -3.393303394317627, 8.434257507324219, -1.956030249595642, 53.00712203979492, -12.410820007324219
849, 348356133, -1.5371067523956299, -3.3934779167175293, 8.38876724243164, -1.595899224281311, 41.72979736328125, -11.437938690185547
850, 348372800, -1.3277438879013062, -3.4265546798706055, 8.42879867553711, -0.9775400757789612, 38.754642486572266, -12.15377140045166
851, 348389467, -1.2901567220687866, -3.5477383136749268, 8.197696685791016, 0.645823061466217, 46.084259033203125, -13.05004596710205
852, 348406134, -1.5012158155441284, -3.548248052597046, 8.073634147644043, 3.8540942668914795, 54.05849075317383, -14.116839408874512
853, 348422801, -1.860800862312317, -3.5018529891967773, 8.239947319030762, 5.303059101104736, 47.52032470703125, -12.211753845214844
854, 348439468, -2.056811571121216, -3.3805792331695557, 8.396653175354004, 4.874739170074463, 33.880916595458984, -9.333526611328125
855, 348456135, -1.9733262062072754, -3.3641326427459717, 8.373764038085938, 3.0894172191619873, 25.26616096496582, -5.161367893218994
856, 348472802, -2.1095199584960938, -3.42836856842041, 8.20097541809082, 3.6290745735168457, 19.68994903564453, -3.503898859024048
857, 348489469, -2.370837450027466, -3.410801649093628, 8.28994369506836, 3.6767168045043945, 9.809192657470703, -1.1991229057312012
858, 348506136, -2.6870245933532715, -3.292586326599121, 8.412774085998535, 1.1364099979400635, -7.110579490661621, 2.7033443450927734
859, 348522803, -2.7691564559936523, -3.221501111984253, 8.473555564880371, -2.136411190032959, -24.788780212402344, 5.078093528747559
860, 348539470, -2.7377829551696777, -3.102118730545044, 8.601295471191406, -5.465173721313477, -43.5817985534668, 8.276436805725098
861, 348556137, -2.868879556655884, -3.0766665935516357, 8.604721069335938, -10.871763229370117, -67.39420318603516, 12.728055953979492
862, 348572804, -2.5571935176849365, -3.2488579750061035, 8.41647720336914, -14.550714492797852, -94.76343536376953, 16.542585372924805
863, 348589471, -1.9322729110717773, -3.584671974182129, 7.816446781158447, -11.575098991394043, -108.1101303100586, 18.54166030883789
864, 348606138, -1.872347116470337, -3.6580560207366943, 7.488178730010986, -6.289384365081787, -119.68025970458984, 19.6761531829834
865, 348622805, -1.5547653436660767, -3.548190116882324, 7.644647121429443, -1.5148184299468994, -141.34326171875, 21.02806854248047
866, 348639472, -0.9073626399040222, -3.0925331115722656, 8.53691577911377, -6.807679176330566, -165.5377197265625, 31.306596755981445
867, 348656139, -0.5090695023536682, -2.85107684135437, 9.205130577087402, -21.181856155395508, -191.51702880859375, 45.102081298828125
868, 348672806, 0.011578202247619629, -2.8215205669403076, 9.458559036254883, -39.991031646728516, -205.8888397216797, 52.889617919921875
869, 348689473, 0.8525162935256958, -3.147477149963379, 9.25558090209961, -59.276466369628906, -198.68275451660156, 55.50350570678711
870, 348706140, 1.955366611480713, -3.857008457183838, 8.367801666259766, -71.90686798095703, -173.04054260253906, 48.8671760559082
871, 348722807, 2.728121042251587, -4.612682342529297, 7.281380653381348, -73.07305145263672, -139.91075134277344, 48.864864349365234
872, 348739474, 3.5863804817199707, -5.346164703369141, 6.554725170135498, -59.426429748535156, -101.93659210205078, 40.181922912597656
873, 348756141, 3.973670482635498, -5.948540687561035, 6.070139408111572, -28.46832275390625, -56.60172653198242, 21.492626190185547
874, 348772808, 4.625609874725342, -6.118189811706543, 6.012976169586182, 12.63050651550293, 4.3628249168396, -1.0041720867156982
875, 348789475, 3.1544580459594727, -5.3469929695129395, 6.821047782897949, 48.541255950927734, 29.864055633544922, -21.010841369628906
876, 348806142, 2.3395466804504395, -4.2811808586120605, 8.021620750427246, 45.81425094604492, 27.436981201171875, -22.071977615356445
877, 348822809, 2.453005790710449, -3.567322254180908, 8.862160682678223, 27.563186645507812, 3.7884950637817383, -9.946056365966797
878, 348839476, 2.426539182662964, -3.389336109161377, 9.006763458251953, 6.2963337898254395, -18.33530044555664, 5.284643650054932
879, 348856143, 1.9765125513076782, -3.6065971851348877, 8.577340126037598, -7.968172073364258, -31.827585220336914, 14.543949127197266
880, 348872810, 2.00363826751709, -3.9244861602783203, 8.196869850158691, -17.02909278869629, -28.6400089263916, 14.851034164428711
881, 348889477, 2.1894240379333496, -4.263857841491699, 7.956477642059326, -11.941732406616211, -27.90725326538086, 14.321577072143555
882, 348906144, 2.466648817062378, -4.6140265464782715, 7.683420181274414, -0.43475019931793213, -9.095521926879883, 6.1653828620910645
883, 348922811, 2.680630683898926, -4.652026653289795, 7.802709579467773, 14.893227577209473, 15.280056953430176, -4.263612270355225
884, 348939478, 2.5474889278411865, -4.350660800933838, 8.05940055847168, 20.535982131958008, 41.20140075683594, -11.13455581665039
885, 348956145, 2.403292655944824, -4.134151935577393, 8.21934986114502, 19.31066131591797, 52.87736892700195, -13.776708602905273
886, 348972812, 2.534468650817871, -4.111261367797852, 8.148173332214355, 18.279294967651367, 62.110450744628906, -16.28515625
887, 348989479, 3.0933151245117188, -4.536708831787109, 7.895147323608398, 27.9315185546875, 91.60809326171875, -29.833166122436523
888, 349006146, 4.490255832672119, -4.663706302642822, 7.347343921661377, 37.3414421081543, 184.10809326171875, -56.61415481567383
