sep=,
DeviceTag:,15,,,,,,,,,,,,,,,,,
FirmwareVersion:,2.2.1,,,,,,,,,,,,,,,,,
AppVersion:,2023.0.0,,,,,,,,,,,,,,,,,
SyncStatus:,Un-synced,,,,,,,,,,,,,,,,,
OutputRate:,60Hz,,,,,,,,,,,,,,,,,
FilterProfile:,General,,,,,,,,,,,,,,,,,
Measurement Mode:,Inertial Mode - Rate quantities,,,,,,,,,,,,,,,,,
StartTime:,2023-07-21 13:47:58.096 +0900,,,,,,,,,,,,,,,,,
© Movella Technologies B. V. 2005-2023,,,,,,,,,,,,,,,,,,,

PacketCounter,SampleTimeFine,Acc_X,Acc_Y,Acc_Z,Gyr_X,Gyr_Y,Gyr_Z
1, 2854347360, 8.890604972839355, -4.145968437194824, 0.36209455132484436, -0.03829098492860794, 0.01620643585920334, 0.4120123088359833
2, 2854364027, 8.88077449798584, -4.169485569000244, 0.3594982326030731, -0.009707214310765266, -0.12365812063217163, 0.26988741755485535
3, 2854380694, 8.881081581115723, -4.16163969039917, 0.3611111044883728, 0.2242455780506134, 0.1288766860961914, 0.2962684631347656
4, 2854397361, 8.876617431640625, -4.146969318389893, 0.36048540472984314, 0.044969502836465836, -0.020067552104592323, 0.24131645262241364
5, 2854414028, 8.889225006103516, -4.133147716522217, 0.3441920578479767, -0.019965099170804024, 0.018434738740324974, 0.3835437595844269
6, 2854430695, 8.8829984664917, -4.158674716949463, 0.3446855843067169, 0.006947444286197424, 0.0026573175564408302, 0.3470456600189209
7, 2854447362, 8.895045280456543, -4.136988162994385, 0.3262536823749542, -0.051507141441106796, -0.010616464540362358, 0.2886999249458313
8, 2854464029, 8.88940715789795, -4.146115303039551, 0.35764575004577637, 0.1331668347120285, -0.02516447752714157, 0.3078966736793518
9, 2854480696, 8.888219833374023, -4.140726089477539, 0.3318255543708801, 0.10482636839151382, -0.06932076811790466, 0.2696312665939331
10, 2854497363, 8.902567863464355, -4.1446309089660645, 0.3617834448814392, 0.06868685036897659, -7.555746124126017E-4, 0.30642393231391907
11, 2854514030, 8.884865760803223, -4.161003112792969, 0.35917994379997253, 0.07854774594306946, 0.032560139894485474, 0.43530699610710144
12, 2854530697, 8.884525299072266, -4.148107051849365, 0.35095468163490295, 0.11146005988121033, -0.04083944857120514, 0.3400918245315552
13, 2854547364, 8.898319244384766, -4.1538472175598145, 0.3624629080295563, 0.046006813645362854, -0.048933058977127075, 0.3120843470096588
14, 2854564031, 8.898322105407715, -4.1534929275512695, 0.33181124925613403, 0.07492353767156601, -0.04363122954964638, 0.27249985933303833
15, 2854580698, 8.885701179504395, -4.156013488769531, 0.34528684616088867, 0.18288107216358185, -0.005442698486149311, 0.24874413013458252
16, 2854597365, 8.898479461669922, -4.146068572998047, 0.366493284702301, 0.12311385571956635, -0.03538394719362259, 0.27061739563941956
17, 2854614032, 8.902234077453613, -4.15942907333374, 0.3599418103694916, 0.06918630748987198, 0.025567878037691116, 0.3792792558670044
18, 2854630699, 8.91232681274414, -4.158642768859863, 0.35360464453697205, -0.04424593597650528, 7.235587108880281E-4, 0.43940505385398865
19, 2854647366, 8.885565757751465, -4.157112121582031, 0.34055864810943604, -0.002446012804284692, -0.07097279280424118, 0.31515783071517944
20, 2854664033, 8.885408401489258, -4.1492228507995605, 0.3405050039291382, 0.13930107653141022, -0.015585326589643955, 0.3456241488456726
21, 2854680700, 8.885848999023438, -4.1617112159729, 0.3426256775856018, 0.1341785192489624, 0.014925799332559109, 0.2849220633506775
22, 2854697367, 8.90623664855957, -4.157480239868164, 0.35732391476631165, 0.138865664601326, -0.04933006688952446, 0.19819749891757965
23, 2854714034, 8.900886535644531, -4.134918212890625, 0.3653131425380707, 0.09558019787073135, -0.0773119330406189, 0.37464338541030884
24, 2854730701, 8.895464897155762, -4.149326801300049, 0.36636099219322205, 0.03019097074866295, -0.06942322105169296, 0.3714161515235901
25, 2854747368, 8.880579948425293, -4.149158000946045, 0.3547632694244385, -0.06960251927375793, -0.06760472804307938, 0.3769357204437256
26, 2854764035, 8.886857032775879, -4.161471366882324, 0.3504718840122223, 0.018793316558003426, -0.021962888538837433, 0.3510284125804901
27, 2854780702, 8.90007495880127, -4.16007661819458, 0.3655169904232025, 0.19648142158985138, 0.030280614271759987, 0.2861642837524414
28, 2854797369, 8.89071273803711, -4.153907775878906, 0.3748401701450348, 0.1515311300754547, 0.04382973164319992, 0.1295810490846634
29, 2854814036, 8.898407936096191, -4.154286861419678, 0.36683303117752075, 0.06075973063707352, -0.021360991522669792, 0.3175526559352875
30, 2854830703, 8.898359298706055, -4.145747184753418, 0.36179783940315247, -0.08622515946626663, -0.048292744904756546, 0.4779522120952606
31, 2854847370, 8.895090103149414, -4.1585211753845215, 0.3623162806034088, -0.03607548773288727, 0.04902910813689232, 0.36412933468818665
32, 2854864037, 8.885408401489258, -4.156950950622559, 0.3351728618144989, 0.05981205403804779, -0.02535657212138176, 0.3658197820186615
33, 2854880704, 8.881367683410645, -4.1664533615112305, 0.339635968208313, 0.19317735731601715, 0.059632766991853714, 0.27050209045410156
34, 2854897371, 8.890218734741211, -4.1419453620910645, 0.3548169732093811, 0.2873680591583252, 0.014554415829479694, 0.19174307584762573
35, 2854914038, 8.8926362991333, -4.152327060699463, 0.36486971378326416, 0.1107172966003418, -0.0024075936526060104, 0.3987833559513092
36, 2854930705, 8.880341529846191, -4.15958309173584, 0.3682563602924347, -0.06034351512789726, -0.006748945917934179, 0.46450549364089966
37, 2854947372, 8.870443344116211, -4.158381938934326, 0.3469707667827606, 0.004527044482529163, -0.015265165828168392, 0.41093653440475464
38, 2854964039, 8.890510559082031, -4.176612854003906, 0.33846670389175415, 0.05107812210917473, -0.045833926647901535, 0.22560304403305054
39, 2854980706, 8.883842468261719, -4.144452095031738, 0.35919424891471863, 0.2669547498226166, 0.026912543922662735, 0.2448509931564331
40, 2854997373, 8.90341854095459, -4.150449752807617, 0.36581382155418396, 0.22306738793849945, -0.0020618222188204527, 0.1843665987253189
41, 2855014040, 8.906641006469727, -4.1301655769348145, 0.36859968304634094, -0.0369207039475441, 0.01746145635843277, 0.3909330368041992
42, 2855030707, 8.885934829711914, -4.139863967895508, 0.37213656306266785, -0.10076035559177399, 0.017397426068782806, 0.39302048087120056
43, 2855047374, 8.893670082092285, -4.156035423278809, 0.34653806686401367, -0.06820661574602127, 0.0213673934340477, 0.4432341456413269
44, 2855064041, 8.878137588500977, -4.159557819366455, 0.35881173610687256, 0.11327855288982391, 0.14762519299983978, 0.2517792582511902
45, 2855080708, 8.902138710021973, -4.139410495758057, 0.3605208396911621, 0.2304566651582718, 0.11035871505737305, 0.12156426906585693
46, 2855097375, 8.887057304382324, -4.140146732330322, 0.3643118143081665, 0.10522336512804031, -0.006006177049130201, 0.2998414635658264
47, 2855114042, 8.895393371582031, -4.137228488922119, 0.35328635573387146, -0.03689509630203247, -0.03893130272626877, 0.3577646017074585
48, 2855130709, 8.900617599487305, -4.166041374206543, 0.35447728633880615, -0.00995053444057703, -0.04623092710971832, 0.3611198663711548
49, 2855147376, 8.88049602508545, -4.172543525695801, 0.36375752091407776, -0.0010629268363118172, 0.029371360316872597, 0.3560229241847992
50, 2855164043, 8.881399154663086, -4.162014484405518, 0.3669942021369934, 0.14287403225898743, 0.002772574545815587, 0.32241904735565186
51, 2855180710, 8.88562297821045, -4.163620948791504, 0.37028735876083374, 0.31997308135032654, 0.0509500615298748, 0.23242883384227753
52, 2855197377, 8.878585815429688, -4.157019138336182, 0.3565728962421417, 0.14455166459083557, -0.010155433788895607, 0.33626270294189453
53, 2855214044, 8.887125015258789, -4.153060436248779, 0.3859764635562897, -0.022872140631079674, 0.003950759302824736, 0.3790615499019623
54, 2855230711, 8.870442390441895, -4.152202129364014, 0.36509498953819275, 0.0333029106259346, 0.03308520466089249, 0.4393281936645508
55, 2855247378, 8.88221549987793, -4.155106067657471, 0.36747318506240845, 0.21834184229373932, -0.14216327667236328, 0.151518315076828
56, 2855264045, 8.892415046691895, -4.16713285446167, 0.3464343547821045, -0.1899309605360031, 0.0021706761326640844, 0.4666825532913208
57, 2855280712, 8.885395050048828, -4.16788387298584, 0.3315502107143402, -0.02360210195183754, -0.02645791694521904, 0.2292272299528122
58, 2855297379, 8.88476848602295, -4.145274639129639, 0.32552069425582886, 0.2981894314289093, 0.025196492671966553, 0.15086519718170166
59, 2855314046, 8.89000415802002, -4.1275835037231445, 0.3436592221260071, 0.04791496321558952, -0.054759956896305084, 0.2853446900844574
60, 2855330713, 8.889437675476074, -4.139237880706787, 0.33847737312316895, 0.07444971054792404, 0.048862628638744354, 0.3462516665458679
61, 2855347380, 8.893902778625488, -4.16768741607666, 0.35419073700904846, 0.18080644309520721, 0.03546718880534172, 0.26461121439933777
62, 2855364047, 8.890522956848145, -4.150782585144043, 0.3633033335208893, 0.045853134244680405, 0.08878001570701599, 0.4906304180622101
63, 2855380714, 8.879375457763672, -4.14813232421875, 0.34708163142204285, 0.061809852719306946, 0.034878090023994446, 0.4026380181312561
64, 2855397381, 8.893651962280273, -4.1482038497924805, 0.37113162875175476, 0.2455681413412094, -0.03561445698142052, 0.2388319969177246
65, 2855414048, 8.887022018432617, -4.151987552642822, 0.3699800968170166, 0.049118757247924805, 0.04076901450753212, 0.3301413059234619
66, 2855430715, 8.882397651672363, -4.147964000701904, 0.3772362172603607, -0.0433494970202446, 0.029435398057103157, 0.424063116312027
67, 2855447382, 8.899298667907715, -4.16949987411499, 0.3398827314376831, 0.11262543499469757, -0.04696088284254074, 0.3425634503364563
68, 2855464049, 8.898344039916992, -4.1429362297058105, 0.3617043197154999, 0.24414663016796112, -0.009310215711593628, 0.18521182239055634
69, 2855480716, 8.896270751953125, -4.140683174133301, 0.36731573939323425, 0.06170739233493805, 0.02301941253244877, 0.3429476320743561
70, 2855497383, 8.890698432922363, -4.1519622802734375, 0.3717896640300751, -0.050841208547353745, 0.011173538863658905, 0.4582304060459137
71, 2855514050, 8.876260757446289, -4.16308069229126, 0.36372172832489014, 0.05413884297013283, 0.22206850349903107, 0.48020607233047485
72, 2855530717, 8.870975494384766, -4.153099536895752, 0.36002394556999207, 0.20352491736412048, 0.02483791671693325, 0.20134784281253815
73, 2855547384, 8.918947219848633, -4.1215643882751465, 0.31271106004714966, -0.09593236446380615, 0.5443658828735352, 0.7544284462928772
74, 2855564051, 8.827141761779785, -4.199339866638184, 0.38719597458839417, 0.5545341372489929, -0.1708366870880127, -0.2534888684749603
75, 2855580718, 8.967440605163574, -4.1060791015625, 0.39804577827453613, 0.14911071956157684, -0.25260522961616516, 0.2696056663990021
76, 2855597385, 8.809576034545898, -4.23341703414917, 0.42102453112602234, -1.3329617977142334, 0.49387049674987793, 1.7370854616165161
77, 2855614052, 8.846959114074707, -4.188887119293213, 0.3017508387565613, 0.531226634979248, -0.6167538166046143, -1.035815954208374
78, 2855630719, 9.89340591430664, -3.9568090438842773, -0.15712405741214752, 5.99572229385376, -0.19277402758598328, 5.5162787437438965
79, 2855647386, 10.637292861938477, -0.4976862072944641, 7.842193126678467, -194.483154296875, 41.63111877441406, 310.81024169921875
80, 2855664053, 8.801251411437988, -5.0589399337768555, 2.4370172023773193, -674.767822265625, 194.2486114501953, 132.63682556152344
81, 2855680720, 6.00582218170166, -5.653442859649658, -5.577775001525879, -365.75836181640625, 15.747081756591797, 41.41679763793945
82, 2855697387, 6.929123878479004, -6.6869378089904785, -5.418811321258545, -71.6183090209961, 20.722440719604492, 31.307682037353516
83, 2855714054, 6.889811992645264, -6.931793689727783, -2.9533395767211914, 89.98916625976562, 0.6932224035263062, 23.108407974243164
84, 2855730721, 8.579780578613281, -5.4775471687316895, -0.7126619219779968, 111.39222717285156, -4.812735557556152, 7.224911212921143
85, 2855747388, 9.334776878356934, -4.60190486907959, 0.49565333127975464, 34.140663146972656, 12.548133850097656, 14.806814193725586
86, 2855764055, 7.589882850646973, -5.451964855194092, -1.0911751985549927, -26.832502365112305, 31.964759826660156, -23.831411361694336
87, 2855780722, 7.5343017578125, -6.436174392700195, -2.182436227798462, 112.70867919921875, 6.444247245788574, -77.33702850341797
88, 2855797389, 8.071744918823242, -5.754277229309082, -1.0574908256530762, 188.50865173339844, -33.40726089477539, -57.96932601928711
89, 2855814056, 8.531750679016113, -4.8447089195251465, 0.7037221193313599, 183.62586975097656, -49.01689910888672, -44.283077239990234
90, 2855830723, 8.66108512878418, -4.743565559387207, 1.215804100036621, 100.0009994506836, -24.04113006591797, -37.20494842529297
91, 2855847390, 8.465487480163574, -4.863109111785889, 0.8186540007591248, 55.324989318847656, -24.849239349365234, -27.74863052368164
92, 2855864057, 7.899974822998047, -5.3510212898254395, 1.8535480499267578, 16.860960006713867, -34.591033935546875, -36.12216567993164
93, 2855880724, 8.460927963256836, -5.424057483673096, -1.1451773643493652, -26.867237091064453, -28.449800491333008, -65.58380126953125
94, 2855897391, 7.9040021896362305, -4.530727863311768, -2.2214784622192383, 176.626708984375, -47.57278823852539, -83.45594024658203
95, 2855914058, 9.47067928314209, -4.945127964019775, 0.4750845432281494, 205.7284393310547, -64.3605728149414, -88.31314849853516
96, 2855930725, 9.180170059204102, -3.600036859512329, 0.08763973414897919, 191.5050048828125, -41.67247772216797, -77.82461547851562
97, 2855947392, 11.380595207214355, -1.5673707723617554, 1.4992936849594116, 201.7446746826172, -17.109697341918945, -85.3141098022461
98, 2855964059, 8.399402618408203, -0.720481812953949, 0.9074465036392212, 10.046883583068848, -53.11848831176758, -123.24830627441406
99, 2855980726, 9.320901870727539, -2.2331528663635254, -3.366712808609009, 63.82818603515625, -98.67317962646484, -156.7268524169922
100, 2855997393, 9.11166763305664, -2.744854688644409, 1.4559892416000366, 342.5202941894531, -91.01361846923828, -140.7177734375
101, 2856014060, 11.401927947998047, -3.565499782562256, 3.8003315925598145, 320.8281555175781, -49.48332595825195, -125.81046295166016
102, 2856030727, 11.09079360961914, -4.1145548820495605, 4.7500481605529785, 247.52565002441406, 24.970304489135742, -79.06714630126953
103, 2856047394, 9.944994926452637, -4.888455390930176, 2.7668070793151855, 123.960693359375, 78.51282501220703, -41.57133483886719
104, 2856064061, 11.281155586242676, -5.55481481552124, 2.6798555850982666, 33.350379943847656, 85.68445587158203, 2.6860387325286865
105, 2856080728, 11.003111839294434, -5.458089828491211, 1.3927730321884155, -56.43549346923828, 62.675838470458984, 65.28684997558594
106, 2856097395, 12.565580368041992, -4.555516719818115, 2.0179951190948486, -80.57401275634766, 72.39705657958984, 129.52061462402344
107, 2856114062, 14.093274116516113, -3.2409684658050537, 1.5746787786483765, -103.62760925292969, 116.83926391601562, 178.3599853515625
108, 2856130729, 12.853541374206543, -1.8427562713623047, -0.3846629858016968, -113.5902099609375, 135.75877380371094, 179.19580078125
109, 2856147396, 10.629645347595215, -0.459747850894928, -0.7730208039283752, -85.0901870727539, 118.721923828125, 125.0079574584961
110, 2856164063, 7.479475021362305, -0.657219409942627, 0.4610252380371094, -7.864419937133789, 75.62545776367188, 46.17158126831055
111, 2856180730, 7.02495002746582, -2.4774253368377686, 2.8924481868743896, -0.5862112641334534, 15.193320274353027, -10.633673667907715
112, 2856197397, 6.803140163421631, -4.427398681640625, -0.41879212856292725, -40.57087707519531, -87.66184997558594, -53.81693649291992
113, 2856214064, 9.742688179016113, -6.421725749969482, 1.7480978965759277, 49.6528434753418, -150.25027465820312, -11.840484619140625
114, 2856230731, 9.903247833251953, -6.501340866088867, 5.765898704528809, 27.65380096435547, -110.11188507080078, 51.30319595336914
115, 2856247398, 9.540599822998047, -6.093671798706055, 6.24192476272583, -12.63944149017334, -11.210064888000488, 107.1136474609375
116, 2856264065, 9.96484661102295, -5.105983734130859, 4.935355186462402, -6.101332187652588, 90.0325927734375, 141.2701873779297
117, 2856280732, 9.26325511932373, -3.875959634780884, 3.2225887775421143, 30.67598533630371, 158.9674072265625, 155.5253448486328
118, 2856297399, 9.398575782775879, -3.0256450176239014, 2.3036949634552, 58.89878463745117, 188.7921905517578, 147.76112365722656
119, 2856314066, 8.877216339111328, -2.8628857135772705, 1.357297420501709, 59.298946380615234, 193.14430236816406, 121.88272094726562
120, 2856330733, 8.195231437683105, -3.3659207820892334, 0.6249173879623413, 86.95236206054688, 182.3681640625, 82.46674346923828
121, 2856347400, 7.702330112457275, -4.420544147491455, 0.5158382654190063, 133.25967407226562, 165.05555725097656, 37.66935729980469
122, 2856364067, 7.621910095214844, -5.809689521789551, 0.7789026498794556, 157.3879852294922, 135.109375, 2.6073901653289795
123, 2856380734, 8.553592681884766, -7.072608470916748, 1.4236321449279785, 215.00303649902344, 87.99304962158203, -2.1549630165100098
124, 2856397401, 8.233119010925293, -8.0740385055542, 4.435551166534424, 171.07199096679688, 35.940086364746094, 4.516140460968018
125, 2856414068, 8.858199119567871, -8.056207656860352, 3.2732362747192383, 34.64713668823242, -16.137269973754883, 77.27501678466797
126, 2856430735, 7.712076187133789, -7.458067417144775, 5.03029727935791, 12.850774765014648, -35.975746154785156, 175.78724670410156
127, 2856447402, 6.971887588500977, -5.650458812713623, 6.248477458953857, -0.7066832184791565, -3.3305716514587402, 206.00807189941406
128, 2856464069, 6.522900581359863, -4.282483100891113, 6.727093696594238, -51.307003021240234, 54.36326599121094, 201.45997619628906
129, 2856480736, 5.174197673797607, -4.039254188537598, 4.399942398071289, -57.45070266723633, 77.62712860107422, 192.0782470703125
130, 2856497403, 4.870655536651611, -4.54225492477417, 3.614480972290039, 57.046234130859375, 71.21932220458984, 169.1577606201172
131, 2856514070, 5.279656887054443, -5.457941055297852, 4.809333801269531, 127.56476593017578, 57.77005386352539, 145.384033203125
132, 2856530737, 5.641168594360352, -5.976129055023193, 5.672439098358154, 146.24603271484375, 58.53343200683594, 146.6983184814453
133, 2856547404, 5.203548431396484, -5.87241792678833, 5.5878586769104, 129.71798706054688, 77.70880889892578, 177.4224853515625
134, 2856564071, 4.328368663787842, -5.042924880981445, 4.618597507476807, 100.89530181884766, 84.88154602050781, 206.07269287109375
135, 2856580738, 3.8969051837921143, -3.9803245067596436, 4.781064510345459, 133.38816833496094, 104.27685546875, 220.8082733154297
136, 2856597405, 2.842510223388672, -3.239459991455078, 5.103016376495361, 66.3648910522461, 95.92971801757812, 211.33706665039062
137, 2856614072, 2.4730398654937744, -2.6764566898345947, 4.040904521942139, 72.8449935913086, 57.137664794921875, 189.33343505859375
138, 2856630739, 1.913348913192749, -1.8802518844604492, 5.409154891967773, 148.7652130126953, 34.09213638305664, 161.67526245117188
139, 2856647406, 0.8642926216125488, -1.6958534717559814, 6.696065902709961, 200.72866821289062, 34.30364990234375, 125.09748077392578
140, 2856664073, -0.23354914784431458, -1.474603295326233, 8.16176700592041, 195.1710662841797, 57.51447677612305, 93.5775375366211
141, 2856680740, -0.2945391833782196, -1.6441144943237305, 7.760167598724365, 141.70358276367188, 85.6577377319336, 59.15727233886719
142, 2856697407, -0.4648740291595459, -1.4173214435577393, 7.182459831237793, 130.35250854492188, 98.30842590332031, 49.867713928222656
143, 2856714074, -0.3558470606803894, -1.3981465101242065, 6.602072238922119, 99.60832214355469, 86.71798706054688, 25.253307342529297
144, 2856730741, -0.8107922673225403, -1.371673822402954, 5.403280258178711, 188.028564453125, 44.19194793701172, 12.278627395629883
145, 2856747408, -1.6681095361709595, -1.1962628364562988, 8.59108829498291, 178.51121520996094, -51.15121841430664, 1.6700167655944824
146, 2856764075, 0.4711516201496124, -0.956642746925354, 12.70971965789795, 116.1368637084961, -176.6517791748047, -5.129418849945068
147, 2856780742, 2.0503735542297363, -1.0354865789413452, 15.670910835266113, 92.97035217285156, -192.8640899658203, -39.01058578491211
148, 2856797409, 2.6545751094818115, -1.3036444187164307, 17.5494327545166, 173.63323974609375, -84.55838012695312, -59.76268768310547
149, 2856814076, 1.4120491743087769, -1.1289690732955933, 18.49983787536621, 242.57293701171875, 80.17862701416016, -59.086463928222656
150, 2856830743, 1.1716210842132568, -1.1768832206726074, 14.473105430603027, 200.3063201904297, 230.86070251464844, -65.26182556152344
151, 2856847410, 2.0859920978546143, -1.7028143405914307, 8.810847282409668, 171.9340057373047, 299.5039978027344, -65.27119445800781
152, 2856864077, 1.9318909645080566, -1.994868516921997, 4.470839977264404, 174.01303100585938, 276.03662109375, -47.979679107666016
153, 2856880744, 0.2557511329650879, -1.445580005645752, 2.9845731258392334, 224.56210327148438, 216.26698303222656, -21.382917404174805
154, 2856897411, -1.3733683824539185, -0.3778516352176666, 3.3874754905700684, 247.52513122558594, 150.3593292236328, 6.055552005767822
155, 2856914078, -2.395566701889038, 1.3609793186187744, 5.271685600280762, 226.06350708007812, 95.41221618652344, 25.212278366088867
156, 2856930745, -2.621107816696167, 3.5687735080718994, 7.637160778045654, 195.62493896484375, 65.29481506347656, 28.247941970825195
157, 2856947412, -3.1702306270599365, 5.3082275390625, 9.001421928405762, 178.30670166015625, 69.53707885742188, 3.5546886920928955
158, 2856964079, -3.5989880561828613, 5.858137130737305, 8.533252716064453, 220.8469696044922, 100.43780517578125, -39.77149963378906
159, 2856980746, -2.8612864017486572, 5.385056018829346, 8.481684684753418, 233.73997497558594, 106.72303771972656, -71.24742889404297
160, 2856997413, -1.6011428833007812, 5.166963577270508, 10.060587882995605, 207.81942749023438, 88.72007751464844, -73.17576599121094
161, 2857014080, -2.2714006900787354, 5.988278388977051, 12.740873336791992, 205.17665100097656, 114.86940002441406, -73.58463287353516
162, 2857030747, -2.9823012351989746, 7.179296016693115, 13.492433547973633, 206.4538116455078, 195.40707397460938, -96.75346374511719
163, 2857047414, -2.41552472114563, 8.009989738464355, 12.466914176940918, 190.29946899414062, 259.13995361328125, -132.8479461669922
164, 2857064081, -2.810750961303711, 8.079771995544434, 11.428993225097656, 182.6478729248047, 314.32171630859375, -176.57492065429688
165, 2857080748, -2.5633046627044678, 7.629286766052246, 8.402673721313477, 148.50509643554688, 369.7500915527344, -207.596923828125
166, 2857097415, -1.9257279634475708, 5.830747127532959, 4.027981281280518, 161.02911376953125, 400.965576171875, -256.47491455078125
167, 2857114082, -1.6926827430725098, 2.8176109790802, 1.4373269081115723, 202.1449432373047, 396.9388122558594, -298.9056701660156
168, 2857130749, -2.329012155532837, -1.3440674543380737, -0.29158562421798706, 213.88839721679688, 376.95361328125, -305.38995361328125
169, 2857147416, -2.5913524627685547, -4.113157272338867, -0.7773269414901733, 156.89117431640625, 342.1492614746094, -241.12171936035156
170, 2857164083, -4.249079704284668, -3.9598536491394043, -2.27915096282959, 93.34089660644531, 317.25506591796875, -151.05429077148438
171, 2857180750, -5.895092487335205, -1.9708136320114136, -2.869993209838867, 50.62088394165039, 322.92840576171875, -87.44922637939453
172, 2857197417, -6.659686088562012, -0.04147106409072876, -4.695630073547363, -62.47800064086914, 334.4163513183594, -55.341644287109375
173, 2857214084, -6.221096038818359, 1.9547837972640991, -7.338589668273926, -101.3714828491211, 325.97784423828125, -29.825756072998047
174, 2857230751, -6.306249618530273, 3.289592981338501, -8.55620288848877, -68.66000366210938, 301.1685485839844, -32.02602005004883
175, 2857247418, -6.003513813018799, 3.446841239929199, -9.386034965515137, -80.08139038085938, 272.6491394042969, -56.18474578857422
176, 2857264085, -5.611263275146484, 2.445329427719116, -9.968780517578125, -75.35942840576172, 240.0834197998047, -76.15487670898438
177, 2857280752, -5.2789788246154785, 1.5143382549285889, -10.644560813903809, -41.733665466308594, 212.28944396972656, -71.70968627929688
178, 2857297419, -4.742527008056641, 1.002151370048523, -10.746659278869629, -22.658878326416016, 191.89096069335938, -62.16378402709961
179, 2857314086, -4.406743049621582, 0.33101406693458557, -12.060367584228516, -21.568979263305664, 163.4871368408203, -55.96174240112305
180, 2857330753, -4.69234037399292, 0.0013984357938170433, -11.632806777954102, 6.885585784912109, 114.73167419433594, -25.444677352905273
181, 2857347420, -5.080432415008545, 0.9726585745811462, -11.290910720825195, -38.03349304199219, 81.97577667236328, -0.3560011088848114
182, 2857364087, -5.173576831817627, 2.2462823390960693, -11.331893920898438, -67.43074798583984, 58.77527618408203, 6.962683200836182
183, 2857380754, -5.365970134735107, 3.061922788619995, -11.30639362335205, -37.35687255859375, 30.601207733154297, 1.8603743314743042
184, 2857397421, -5.546219348907471, 3.1508328914642334, -10.130169868469238, -8.130858421325684, 4.1263813972473145, -10.772234916687012
185, 2857414088, -5.516434669494629, 2.701375722885132, -8.787602424621582, 38.397525787353516, -14.98876667022705, -20.368946075439453
186, 2857430755, -5.8889875411987305, 2.0289597511291504, -7.156153202056885, 67.76687622070312, -9.160368919372559, -21.41698455810547
187, 2857447422, -6.040006637573242, 1.726180911064148, -6.2121968269348145, 24.816484451293945, 6.057403087615967, -14.944635391235352
188, 2857464089, -5.9811506271362305, 1.700039267539978, -6.801056385040283, -34.68368148803711, 26.56450653076172, -10.079615592956543
189, 2857480756, -5.658481597900391, 1.8538750410079956, -7.904973030090332, -52.66522979736328, 40.37266540527344, -3.8919870853424072
190, 2857497423, -5.345973491668701, 2.2381701469421387, -8.545134544372559, -54.90647506713867, 33.33718490600586, -1.4099609851837158
191, 2857514090, -5.2374420166015625, 2.4786617755889893, -8.583113670349121, -15.484935760498047, 32.89866256713867, -6.260311126708984
192, 2857530757, -5.302177429199219, 2.2727572917938232, -8.942151069641113, -41.9060173034668, 28.222543716430664, -19.478849411010742
193, 2857547424, -5.092350006103516, 1.8609193563461304, -9.788562774658203, -39.40454864501953, 26.457660675048828, -20.723596572875977
194, 2857564091, -4.952735424041748, 1.8381319046020508, -10.116049766540527, -37.82270050048828, 16.72199249267578, -10.441954612731934
195, 2857580758, -4.9241251945495605, 2.352917432785034, -10.217581748962402, -28.399824142456055, 1.0834649801254272, 1.5016446113586426
196, 2857597425, -5.119154930114746, 2.9199087619781494, -9.90157699584961, -22.931604385375977, -17.430774688720703, 1.2748373746871948
197, 2857614092, -5.2297468185424805, 3.1130192279815674, -9.778861045837402, -6.59524393081665, -30.633737564086914, -6.946190357208252
198, 2857630759, -5.284117698669434, 2.982297897338867, -9.770428657531738, -0.32077521085739136, -37.036983489990234, -13.465808868408203
199, 2857647426, -5.401553153991699, 3.1124980449676514, -9.994501113891602, -2.528931140899658, -49.370601654052734, -10.67765998840332
200, 2857664093, -5.429414749145508, 3.2900614738464355, -9.658393859863281, -2.7352046966552734, -60.151634216308594, -16.435895919799805
201, 2857680760, -5.537470817565918, 3.0635223388671875, -9.265382766723633, -7.9683661460876465, -65.7887191772461, -23.620342254638672
202, 2857697427, -5.706666946411133, 3.106177806854248, -9.240948677062988, -62.465694427490234, -69.47506713867188, -17.881206512451172
203, 2857714094, -5.971744060516357, 4.254944801330566, -9.722804069519043, -165.7364044189453, -71.68030548095703, -8.955910682678223
204, 2857730761, -5.975808143615723, 5.621565818786621, -11.332695007324219, -225.85302734375, -87.01802825927734, -18.382709503173828
205, 2857747428, -5.593937397003174, 6.026783466339111, -10.675382614135742, -161.2589874267578, -119.008056640625, -62.20049285888672
206, 2857764095, -5.268744468688965, 4.084620952606201, -9.564972877502441, -80.55448913574219, -141.21304321289062, -117.08084869384766
207, 2857780762, -4.687168121337891, 1.3006458282470703, -8.562045097351074, -34.19792938232422, -167.0811767578125, -135.89093017578125
208, 2857797429, -4.894476413726807, -0.32262229919433594, -7.36714506149292, 16.64398193359375, -203.19766235351562, -99.64442443847656
209, 2857814096, -5.7503581047058105, -0.14812597632408142, -3.801574945449829, 11.339249610900879, -224.23196411132812, -63.89784240722656
210, 2857830763, -6.652972221374512, 0.4787667989730835, -2.695295572280884, -40.49887466430664, -232.75877380371094, -32.277984619140625
211, 2857847430, -7.697149753570557, 1.3956860303878784, -1.1003055572509766, -55.880802154541016, -218.24169921875, -17.513261795043945
212, 2857864097, -8.368861198425293, 2.1741669178009033, -0.022702723741531372, -86.64769744873047, -180.8585662841797, -14.627215385437012
213, 2857880764, -8.970017433166504, 2.6197948455810547, -0.08738186955451965, -119.89404296875, -136.6152801513672, -16.45833396911621
214, 2857897431, -8.99510383605957, 2.7539281845092773, -0.5326653122901917, -117.10315704345703, -101.35780334472656, -25.18446159362793
215, 2857914098, -9.008953094482422, 2.2195563316345215, -1.143608808517456, -137.81015014648438, -80.69448852539062, -40.33107376098633
216, 2857930765, -8.4602632522583, 1.2785576581954956, -2.6781692504882812, -176.6624298095703, -81.05830383300781, -45.84614181518555
217, 2857947432, -8.503866195678711, 0.8759462237358093, -3.671292543411255, -184.64010620117188, -99.4817123413086, -37.08155059814453
218, 2857964099, -8.461684226989746, 1.376798391342163, -3.907170534133911, -119.269775390625, -125.49860382080078, -17.834678649902344
219, 2857980766, -8.316509246826172, 2.3674919605255127, -2.6513545513153076, -68.13169860839844, -150.9114532470703, -11.905056953430176
220, 2857997433, -8.453344345092773, 3.1115970611572266, -0.5554968118667603, -32.77153778076172, -165.0294952392578, -20.288949966430664
221, 2858014100, -8.544876098632812, 3.067013740539551, 0.8287122249603271, -22.704050064086914, -148.780029296875, -37.93365478515625
222, 2858030767, -8.489668846130371, 2.4837396144866943, 1.4631564617156982, -4.297388553619385, -127.21525573730469, -44.56648635864258
223, 2858047434, -8.631479263305664, 1.8270844221115112, 1.8527748584747314, -34.9681282043457, -122.03009796142578, -42.364845275878906
224, 2858064101, -8.543652534484863, 1.7364023923873901, 1.697712779045105, -113.19331359863281, -123.60258483886719, -35.01032257080078
225, 2858080768, -8.211067199707031, 1.7827116250991821, 0.6257635951042175, -190.19517517089844, -125.90945434570312, -35.630977630615234
226, 2858097435, -8.172554969787598, 1.960533618927002, 0.22786587476730347, -216.67864990234375, -148.5011444091797, -39.864585876464844
227, 2858114102, -8.145675659179688, 2.0539183616638184, 1.4327000379562378, -195.60800170898438, -177.00912475585938, -56.9688606262207
228, 2858130769, -7.888692378997803, 1.2582052946090698, 3.273487091064453, -159.6190948486328, -180.67723083496094, -83.93374633789062
229, 2858147436, -7.923975944519043, -0.059632301330566406, 5.605847358703613, -173.7252655029297, -167.18605041503906, -98.53179931640625
230, 2858164103, -7.463981628417969, -1.3385093212127686, 5.820975303649902, -317.769287109375, -151.53961181640625, -109.0658187866211
231, 2858180770, -7.045210361480713, -2.3083856105804443, 4.711643695831299, -378.0643615722656, -128.91773986816406, -95.07044219970703
232, 2858197437, -6.978604793548584, -2.2083849906921387, 3.8895246982574463, -356.4697570800781, -115.2691421508789, -83.78013610839844
233, 2858214104, -7.247165203094482, -2.2094922065734863, 3.5662498474121094, -302.3853759765625, -117.24478912353516, -87.89913940429688
234, 2858230771, -7.0062575340271, -2.9972877502441406, 4.824831962585449, -186.4201202392578, -118.68181610107422, -101.953125
235, 2858247438, -6.570228099822998, -4.182613372802734, 6.302157878875732, -176.40330505371094, -103.12123107910156, -114.70088195800781
236, 2858264105, -6.045726776123047, -4.806893348693848, 6.38448429107666, -255.8249053955078, -81.90743255615234, -117.04495239257812
237, 2858280772, -5.832327365875244, -4.326793670654297, 5.844181060791016, -426.80584716796875, -63.95362854003906, -122.83937072753906
238, 2858297439, -5.61496114730835, -3.610715866088867, 3.96462082862854, -551.71533203125, -47.018802642822266, -150.26705932617188
239, 2858314106, -5.695569038391113, -4.841361999511719, 1.4869861602783203, -453.1684265136719, -20.174766540527344, -178.23130798339844
240, 2858330773, -5.199397087097168, -7.078404903411865, 1.6033005714416504, -289.6417236328125, 2.358407497406006, -201.18173217773438
241, 2858347440, -4.601391792297363, -8.831099510192871, 1.2264682054519653, -284.0652770996094, 15.829174995422363, -241.91407775878906
242, 2858364107, -2.793412685394287, -9.426487922668457, -1.1422642469406128, -294.5088195800781, 3.5085859298706055, -227.70492553710938
243, 2858380774, -2.9477336406707764, -10.233428001403809, 0.418774276971817, -297.8908996582031, -16.87992286682129, -188.66897583007812
244, 2858397441, -2.8355214595794678, -10.205516815185547, 0.0769103467464447, -328.66131591796875, -15.836128234863281, -158.235107421875
245, 2858414108, -2.349729537963867, -10.37440299987793, 0.18566197156906128, -264.27197265625, 31.696163177490234, -143.86424255371094
246, 2858430775, -1.9986066818237305, -10.456750869750977, -1.8833452463150024, -258.0980224609375, 71.60079193115234, -135.764892578125
247, 2858447442, -1.3933106660842896, -10.102977752685547, -4.194896697998047, -213.1338348388672, 74.00259399414062, -108.34455871582031
248, 2858464109, -0.8601031303405762, -9.373544692993164, -4.154109477996826, -197.39895629882812, 62.09062194824219, -94.27257537841797
249, 2858480776, -0.6997043490409851, -8.262296676635742, -5.146081447601318, -249.33612060546875, 41.612552642822266, -94.82717895507812
250, 2858497443, -1.1837276220321655, -7.949817180633545, -6.15840482711792, -228.5846710205078, 22.29264259338379, -100.73167419433594
251, 2858514110, -0.8486387133598328, -8.604181289672852, -5.291676998138428, -173.30477905273438, 21.51237678527832, -106.41326904296875
252, 2858530777, -0.4735971987247467, -9.260265350341797, -5.356586456298828, -196.99346923828125, 29.807294845581055, -107.47713470458984
253, 2858547444, 0.3389420509338379, -9.225887298583984, -6.141123294830322, -198.99195861816406, 43.197509765625, -91.39183044433594
254, 2858564111, 0.31302016973495483, -8.047115325927734, -6.715716361999512, -223.0010986328125, 46.11923599243164, -70.08300018310547
255, 2858580778, 0.32174986600875854, -7.020223617553711, -7.1320037841796875, -242.6805877685547, 44.66220474243164, -62.082313537597656
256, 2858597445, 0.46624666452407837, -6.900938034057617, -7.314447402954102, -273.6669616699219, 54.93115234375, -66.18412017822266
257, 2858614112, 1.0416070222854614, -6.943913459777832, -9.203361511230469, -259.3348083496094, 68.56341552734375, -54.10550308227539
258, 2858630779, 1.7226619720458984, -5.905942916870117, -8.789008140563965, -218.2416229248047, 80.30406951904297, -35.07773971557617
259, 2858647446, 1.0764485597610474, -4.4914422035217285, -9.25607967376709, -244.8134002685547, 83.4463882446289, -37.66444396972656
260, 2858664113, 0.842749297618866, -5.348037242889404, -10.187524795532227, -248.4668731689453, 91.36172485351562, -59.07869338989258
261, 2858680780, 1.9825373888015747, -6.3864922523498535, -10.984363555908203, -231.48336791992188, 84.19190979003906, -40.44540023803711
262, 2858697447, 2.328752040863037, -4.890329360961914, -11.244220733642578, -230.06942749023438, 37.58696365356445, 4.111542701721191
263, 2858714114, 1.9833680391311646, -2.3779196739196777, -9.896235466003418, -232.0167236328125, 5.148685455322266, 23.23666763305664
264, 2858730781, 1.9242260456085205, -0.6311957836151123, -8.982376098632812, -238.48971557617188, 12.758286476135254, 17.048791885375977
265, 2858747448, 1.6667156219482422, 0.7212941646575928, -9.387601852416992, -213.93453979492188, 46.73015213012695, -6.6173415184021
266, 2858764115, 2.0953497886657715, 0.48910340666770935, -10.887289047241211, -197.9807586669922, 58.28641128540039, -35.201053619384766
267, 2858780782, 2.5155446529388428, -0.23008164763450623, -11.146191596984863, -209.4131317138672, 45.59166717529297, -43.57764434814453
268, 2858797449, 2.464313507080078, -0.17588204145431519, -10.708885192871094, -234.03457641601562, 21.578126907348633, -35.81732940673828
269, 2858814116, 2.2760305404663086, 0.42501866817474365, -9.899740219116211, -246.787109375, 13.29797649383545, -24.494356155395508
270, 2858830783, 3.0823612213134766, 0.8487119674682617, -9.310443878173828, -233.85647583007812, 23.224346160888672, -0.5683026909828186
271, 2858847450, 2.951146364212036, 1.6018023490905762, -10.043389320373535, -215.91201782226562, 26.485227584838867, 31.714365005493164
272, 2858864117, 2.713522434234619, 2.2467525005340576, -10.162832260131836, -194.7279510498047, 16.087446212768555, 52.04308319091797
273, 2858880784, 2.4870219230651855, 3.176553249359131, -10.357436180114746, -166.6154327392578, 4.997364521026611, 65.08705139160156
274, 2858897451, 2.745378255844116, 4.710272312164307, -10.240948677062988, -148.526123046875, -6.1148176193237305, 60.36565017700195
275, 2858914118, 2.725264310836792, 5.679300308227539, -10.074585914611816, -133.6979522705078, -21.522825241088867, 38.227787017822266
276, 2858930785, 2.4767637252807617, 5.642338752746582, -9.498367309570312, -127.65421295166016, -30.995710372924805, 11.274292945861816
277, 2858947452, 2.7573862075805664, 5.066642761230469, -9.206826210021973, -98.44261932373047, -28.0186767578125, 1.1913865804672241
278, 2858964119, 2.262218952178955, 5.214435577392578, -8.804847717285156, -82.22178649902344, -10.631244659423828, -1.0368399620056152
279, 2858980786, 2.4945738315582275, 5.674348831176758, -8.649433135986328, -51.991275787353516, 3.1266305446624756, -7.545165538787842
280, 2858997453, 3.2486095428466797, 5.791045188903809, -8.227447509765625, -46.825721740722656, 0.8011655807495117, -14.909391403198242
281, 2859014120, 3.111721992492676, 5.977722644805908, -6.9584126472473145, -71.83584594726562, 6.853102207183838, -21.36829376220703
282, 2859030787, 2.744830369949341, 6.199006080627441, -6.434700012207031, -164.5103759765625, 26.8892879486084, -36.53826904296875
283, 2859047454, 2.7371909618377686, 6.637241840362549, -6.643648147583008, -270.6293640136719, 47.28925704956055, -51.36852264404297
284, 2859064121, 2.685420274734497, 7.06650972366333, -7.597078323364258, -352.1121520996094, 58.45352554321289, -54.98603057861328
285, 2859080788, 2.830281972885132, 7.34970235824585, -8.063838005065918, -356.4769592285156, 47.666446685791016, -44.411251068115234
286, 2859097455, 2.427837371826172, 7.4645771980285645, -8.634210586547852, -253.60208129882812, 33.769012451171875, -20.516643524169922
287, 2859114122, 2.457561731338501, 8.05091667175293, -7.399038314819336, -111.46456909179688, 16.772733688354492, 4.19054651260376
288, 2859130789, 2.4717674255371094, 8.108785629272461, -5.834742546081543, -81.15396881103516, -13.395609855651855, 3.9143097400665283
289, 2859147456, 2.1694209575653076, 8.060687065124512, -4.11145544052124, -101.78041076660156, -20.580162048339844, -2.9610304832458496
290, 2859164123, 2.4796464443206787, 8.106474876403809, -2.9591634273529053, -177.43089294433594, -9.557713508605957, -8.237360000610352
291, 2859180790, 2.54843807220459, 8.301312446594238, -2.8096084594726562, -253.54881286621094, 6.022302627563477, 0.3553735315799713
292, 2859197457, 2.6808021068573, 8.715097427368164, -4.388901710510254, -235.58535766601562, 13.180476188659668, 21.55756378173828
293, 2859214124, 2.9407548904418945, 8.89573860168457, -4.458637714385986, -145.745361328125, 5.391220569610596, 65.00503540039062
294, 2859230791, 1.8937149047851562, 9.093976020812988, -2.227668046951294, -127.93791198730469, -7.657894611358643, 42.627079010009766
295, 2859247458, 2.3245606422424316, 9.858556747436523, -2.7575178146362305, -102.09115600585938, -11.791239738464355, 22.60688591003418
296, 2859264125, 2.4762070178985596, 9.93897819519043, -1.8082219362258911, -58.55929183959961, -4.296098232269287, 9.053607940673828
297, 2859280792, 2.6531221866607666, 9.586874961853027, -1.4587937593460083, -49.14799118041992, 5.678403854370117, -0.7374856472015381
298, 2859297459, 2.7502152919769287, 9.442275047302246, -1.9579217433929443, -43.16270446777344, 13.58979320526123, -0.11963779479265213
299, 2859314126, 2.863121271133423, 9.71911334991455, -2.440521001815796, -31.837936401367188, 10.231550216674805, 1.1268669366836548
300, 2859330793, 2.959134340286255, 9.799478530883789, -2.021555185317993, -26.809572219848633, -1.900313377380371, -3.917407989501953
301, 2859347460, 3.0667176246643066, 9.392257690429688, -1.4623769521713257, -24.564659118652344, -7.2339653968811035, -7.672430038452148
302, 2859364127, 2.881126880645752, 9.133172988891602, -0.9868260622024536, -24.750438690185547, -3.5856575965881348, -3.286756753921509
303, 2859380794, 2.6056010723114014, 9.322985649108887, -1.259160041809082, -13.268630981445312, 6.576046943664551, 0.46761786937713623
304, 2859397461, 2.4033868312835693, 9.511524200439453, -1.8762366771697998, 8.112013816833496, 7.926551818847656, -4.823654651641846
305, 2859414128, 2.43870210647583, 9.162887573242188, -2.107940435409546, 21.605567932128906, 1.6210758686065674, -10.155713081359863
306, 2859430795, 2.751347303390503, 8.994491577148438, -1.936052680015564, 28.413532257080078, -6.197256565093994, -6.398675441741943
307, 2859447462, 2.62843656539917, 9.069697380065918, -1.5771920680999756, 26.845613479614258, -10.632465362548828, -0.2934839725494385
308, 2859464129, 2.7400450706481934, 9.207796096801758, -1.2833821773529053, 25.333267211914062, -8.120295524597168, 0.7797484993934631
309, 2859480796, 2.763235569000244, 8.944724082946777, -0.9372848868370056, 13.821767807006836, -2.0114176273345947, 1.4500958919525146
310, 2859497463, 2.7425074577331543, 8.913321495056152, -1.2367067337036133, -3.8259496688842773, 7.090141773223877, 6.0914387702941895
311, 2859514130, 2.766984224319458, 8.991363525390625, -1.775147795677185, -13.71012020111084, 6.300083160400391, 6.7904767990112305
312, 2859530797, 2.8416531085968018, 8.91965103149414, -1.5206819772720337, -16.39365577697754, 1.5252442359924316, 8.099761962890625
313, 2859547464, 2.906918525695801, 8.958366394042969, -1.2824010848999023, -29.856067657470703, 3.3558080196380615, 13.813345909118652
314, 2859564131, 3.024439811706543, 9.492859840393066, -1.3724751472473145, -35.055931091308594, 8.712206840515137, 21.28706932067871
315, 2859580798, 3.0884838104248047, 10.012511253356934, -1.5150123834609985, -52.82292556762695, 9.234347343444824, 18.752979278564453
316, 2859597465, 3.0302140712738037, 10.066570281982422, -1.4839792251586914, -62.12174606323242, 5.486016750335693, 10.330318450927734
317, 2859614132, 2.970214605331421, 9.73309326171875, -1.2416303157806396, -57.928672790527344, 2.081267833709717, 2.876577138900757
318, 2859630799, 2.7992148399353027, 9.467397689819336, -1.0451393127441406, -43.58714294433594, 2.673029899597168, -0.9179269671440125
319, 2859647466, 2.7936971187591553, 9.172967910766602, -0.7658220529556274, -34.256439208984375, 3.3391098976135254, -4.624277114868164
320, 2859664133, 2.9245052337646484, 8.862139701843262, -0.6265934705734253, -36.91490936279297, 2.6207613945007324, -2.9878251552581787
321, 2859680800, 3.07950496673584, 8.744149208068848, -0.23915931582450867, -60.510414123535156, 2.336696147918701, 2.846818208694458
322, 2859697467, 3.0311059951782227, 8.856575012207031, -0.24072730541229248, -81.11406707763672, 2.38665509223938, 14.726240158081055
323, 2859714134, 2.9630062580108643, 9.458032608032227, -0.440022736787796, -77.46408081054688, 2.1545064449310303, 22.2381649017334
324, 2859730801, 2.84285831451416, 9.929121971130371, -0.3780065178871155, -64.47747039794922, 0.18262776732444763, 15.625275611877441
325, 2859747468, 2.9647891521453857, 10.057129859924316, -0.5053244829177856, -32.47724151611328, -2.9047088623046875, 5.215028285980225
326, 2859764135, 3.0366268157958984, 9.874926567077637, -0.26119208335876465, 3.1470396518707275, -7.658430099487305, -4.462553024291992
327, 2859780802, 3.143144130706787, 9.411018371582031, 0.08362531661987305, 16.62971305847168, -8.21340274810791, -8.19175910949707
328, 2859797469, 3.102388620376587, 9.727799415588379, -0.17781198024749756, 40.065731048583984, -5.148770809173584, 0.3668079376220703
329, 2859814136, 2.728543281555176, 10.52419662475586, -1.0412530899047852, 69.97053527832031, -7.663557052612305, -5.900540351867676
330, 2859830803, 2.6970105171203613, 10.555877685546875, -1.196702241897583, 92.58781433105469, -19.09918975830078, -25.574310302734375
331, 2859847470, 2.9327011108398438, 9.712584495544434, -0.6995140314102173, 113.96269226074219, -24.755779266357422, -37.71956253051758
332, 2859864137, 2.939727306365967, 8.940103530883789, -0.3851432204246521, 111.06982421875, -22.438289642333984, -35.613441467285156
333, 2859880804, 2.836134433746338, 9.089585304260254, -0.8970500230789185, 109.62548828125, -14.08186149597168, -23.652645111083984
334, 2859897471, 2.654249429702759, 9.620038986206055, -1.6354261636734009, 107.87577056884766, -11.026137351989746, -20.22661590576172
335, 2859914138, 2.5156357288360596, 10.229728698730469, -2.698622465133667, 135.39724731445312, -12.79885482788086, -21.40846061706543
336, 2859930805, 2.540177583694458, 10.348251342773438, -2.820214033126831, 165.26419067382812, -22.847633361816406, -34.419612884521484
337, 2859947472, 2.3874459266662598, 9.85744857788086, -2.8317103385925293, 182.81105041503906, -27.348491668701172, -46.144981384277344
338, 2859964139, 2.364400863647461, 9.508560180664062, -3.2931694984436035, 204.55775451660156, -25.1203670501709, -47.89858627319336
339, 2859980806, 2.282600164413452, 9.331353187561035, -3.859497547149658, 222.30490112304688, -25.998537063598633, -47.90806579589844
340, 2859997473, 2.069807291030884, 9.372742652893066, -4.952891826629639, 248.25929260253906, -26.64811134338379, -45.31564712524414
341, 2860014140, 1.9693845510482788, 9.611170768737793, -6.00455379486084, 283.3511962890625, -32.050514221191406, -46.95575714111328
342, 2860030807, 1.8644299507141113, 9.385021209716797, -7.078098297119141, 324.9822082519531, -45.44144821166992, -54.335689544677734
343, 2860047474, 1.7241908311843872, 8.906765937805176, -7.747711181640625, 383.6512451171875, -59.24600601196289, -57.547027587890625
344, 2860064141, 1.5618314743041992, 8.046151161193848, -7.8436479568481445, 394.0541076660156, -78.01441955566406, -67.5992202758789
345, 2860080808, 1.476452112197876, 7.0422868728637695, -8.565614700317383, 455.3994445800781, -79.46510314941406, -61.15811538696289
346, 2860097475, 1.197469711303711, 5.79298210144043, -8.790946960449219, 509.4461669921875, -76.37411499023438, -48.49345397949219
347, 2860114142, 1.0032026767730713, 4.16314172744751, -9.042604446411133, 554.5803833007812, -70.39414978027344, -31.530405044555664
348, 2860130809, 0.48134544491767883, 2.205456256866455, -9.228301048278809, 557.0738525390625, -63.985069274902344, -12.532154083251953
349, 2860147476, 0.3655765950679779, 0.891074538230896, -10.115962028503418, 605.9325561523438, -51.392601013183594, 11.817604064941406
350, 2860164143, 0.4267900884151459, -0.23241621255874634, -9.370247840881348, 618.7636108398438, -54.04265213012695, 30.588747024536133
351, 2860180810, -0.03005814552307129, -1.5499897003173828, -8.367968559265137, 582.4967651367188, -54.00315856933594, 36.300819396972656
352, 2860197477, -0.5358149409294128, -3.0155460834503174, -8.158575057983398, 537.9283447265625, -44.450157165527344, 28.26677894592285
353, 2860214144, -0.884731113910675, -4.295934677124023, -7.316452503204346, 530.3641967773438, -31.560853958129883, 15.761120796203613
354, 2860230811, -0.4112240672111511, -5.968526363372803, -6.927985668182373, 499.8892517089844, -27.372941970825195, 3.1608195304870605
355, 2860247478, -0.42510610818862915, -7.243131160736084, -5.999536991119385, 448.67950439453125, -36.58015441894531, 1.5728275775909424
356, 2860264145, -0.5379726886749268, -7.869596004486084, -5.3345255851745605, 394.47906494140625, -53.36622619628906, 2.5425524711608887
357, 2860280812, -0.6252665519714355, -7.98753547668457, -4.308410167694092, 382.5514831542969, -60.42680740356445, 6.919991493225098
358, 2860297479, -1.0765267610549927, -8.0623779296875, -2.5703914165496826, 363.22161865234375, -62.96478271484375, -0.021384038031101227
359, 2860314146, -1.3570995330810547, -8.365533828735352, -1.7342267036437988, 335.89300537109375, -60.557708740234375, -29.718761444091797
360, 2860330813, -0.8847810626029968, -8.392583847045898, 0.022059530019760132, 328.1490173339844, -48.877593994140625, -56.34455108642578
361, 2860347480, -0.44418150186538696, -9.440291404724121, -0.09164151549339294, 333.91461181640625, -34.54716491699219, -33.09208679199219
362, 2860364147, -0.47608405351638794, -9.950456619262695, 1.7743604183197021, 313.5793151855469, -23.843996047973633, -14.195292472839355
363, 2860380814, -0.7069287896156311, -9.766359329223633, 2.4642066955566406, 265.046142578125, -12.261676788330078, 1.0967581272125244
364, 2860397481, -0.8636297583580017, -9.135805130004883, 2.7470450401306152, 218.3026885986328, -6.71420431137085, 2.857442855834961
365, 2860414148, -0.7895893454551697, -8.992805480957031, 2.8723368644714355, 199.89630126953125, -4.32367467880249, -4.064155578613281
366, 2860430815, -0.7097426056861877, -9.016033172607422, 3.4334263801574707, 208.8294677734375, -0.7081336379051208, -7.04963493347168
367, 2860447482, -0.5817237496376038, -8.834524154663086, 3.8417348861694336, 204.50921630859375, 1.234362006187439, -8.11263656616211
368, 2860464149, -0.46327319741249084, -8.663533210754395, 3.889418601989746, 216.33917236328125, 2.0974631309509277, -6.04439115524292
369, 2860480816, -0.6677286624908447, -7.915303707122803, 4.7365264892578125, 246.51478576660156, 7.553222179412842, -0.08045393228530884
370, 2860497483, -0.7789983153343201, -7.162492752075195, 5.484852313995361, 250.55606079101562, 12.63680648803711, -2.783975601196289
371, 2860514150, -0.7720564603805542, -6.728938102722168, 5.80230712890625, 263.3291931152344, 8.789658546447754, -8.543198585510254
372, 2860530817, -0.7098299264907837, -6.0717878341674805, 6.6220245361328125, 301.4480895996094, 8.8035888671875, -13.2644681930542
373, 2860547484, -0.5884093046188354, -5.640416622161865, 7.524368762969971, 323.3564758300781, 13.534246444702148, -20.34709930419922
374, 2860564151, -0.6992560625076294, -5.175517559051514, 8.549160957336426, 335.11639404296875, 24.719249725341797, -21.50054359436035
375, 2860580818, -0.6645231246948242, -4.938744068145752, 8.982259750366211, 301.820068359375, 37.43727493286133, -20.21763038635254
376, 2860597485, -0.4684559106826782, -4.810125350952148, 8.554708480834961, 255.0972137451172, 37.25967788696289, -12.606945037841797
377, 2860614152, -0.36178168654441833, -3.998567581176758, 8.194592475891113, 255.98513793945312, 28.134258270263672, 6.337878227233887
378, 2860630819, -0.7600501775741577, -2.4526684284210205, 8.725507736206055, 304.1138610839844, 24.438501358032227, 20.678340911865234
379, 2860647486, -1.2851452827453613, -1.217418909072876, 9.44041919708252, 301.67138671875, 29.9730224609375, 14.528430938720703
380, 2860664153, -1.3000566959381104, -0.6939495801925659, 9.379471778869629, 271.7794494628906, 30.976900100708008, 6.3211588859558105
381, 2860680820, -1.1926978826522827, -0.28563806414604187, 8.984235763549805, 241.00296020507812, 28.566190719604492, 5.5721755027771
382, 2860697487, -1.245672583580017, 0.5093543529510498, 8.966547966003418, 238.5761260986328, 23.597827911376953, 10.535388946533203
383, 2860714154, -1.4753233194351196, 1.3708910942077637, 9.0896635055542, 225.558837890625, 18.68410873413086, 8.44223690032959
384, 2860730821, -1.241286039352417, 2.0101237297058105, 8.963464736938477, 219.03688049316406, 17.3134765625, 7.213040828704834
385, 2860747488, -1.4074158668518066, 2.594346046447754, 9.218690872192383, 224.64187622070312, 19.232250213623047, 8.5699462890625
386, 2860764155, -1.5290005207061768, 3.272608995437622, 9.0995512008667, 223.65548706054688, 25.816495895385742, 4.585844993591309
387, 2860780822, -1.573115587234497, 3.9924368858337402, 8.689321517944336, 232.17701721191406, 33.146636962890625, 0.0040796129032969475
388, 2860797489, -1.790243148803711, 4.478357315063477, 8.431695938110352, 231.09466552734375, 38.893310546875, -4.0455145835876465
389, 2860814156, -1.397573709487915, 5.123837947845459, 7.7392258644104, 236.55422973632812, 38.30691909790039, -0.7118313908576965
390, 2860830823, -1.8216203451156616, 5.748331546783447, 7.814290523529053, 250.91249084472656, 36.87757873535156, 2.0984950065612793
391, 2860847490, -1.8764816522598267, 6.1549859046936035, 7.53880500793457, 236.45664978027344, 39.375553131103516, -5.0711774826049805
392, 2860864157, -2.0333590507507324, 6.637301445007324, 7.0013837814331055, 248.46299743652344, 46.54917907714844, -10.537687301635742
393, 2860880824, -2.097303628921509, 7.084144592285156, 6.637996673583984, 241.18687438964844, 53.31599807739258, -15.032341957092285
394, 2860897491, -2.1258742809295654, 7.397861003875732, 5.791045188903809, 248.78125, 59.64534378051758, -16.217008590698242
395, 2860914158, -2.311471939086914, 7.672088146209717, 5.307450294494629, 251.47543334960938, 63.044586181640625, -14.273698806762695
396, 2860930825, -2.377533435821533, 8.020577430725098, 4.118638038635254, 272.4472351074219, 70.32161712646484, -10.0397310256958
397, 2860947492, -2.533062696456909, 8.499761581420898, 4.091655731201172, 305.6003723144531, 78.8946533203125, -0.5613329410552979
398, 2860964159, -2.195749044418335, 8.397003173828125, 2.885067939758301, 257.37432861328125, 75.27139282226562, 17.91810417175293
399, 2860980826, -2.986093282699585, 8.27104663848877, 2.2164924144744873, 193.28265380859375, 60.65473175048828, 16.596595764160156
400, 2860997493, -2.624776601791382, 9.408730506896973, 0.5448334813117981, 127.36840057373047, 42.69719696044922, 9.413223266601562
401, 2861014160, -2.737179756164551, 10.283215522766113, 0.3598087728023529, 152.26979064941406, 29.654447555541992, 8.187989234924316
402, 2861030827, -3.088845729827881, 10.784409523010254, 0.7511288523674011, 166.0220489501953, 26.380834579467773, -9.491605758666992
403, 2861047494, -3.4347193241119385, 10.39229965209961, 0.8719015121459961, 161.15512084960938, 28.34651756286621, -39.761962890625
404, 2861064161, -3.0329196453094482, 9.096963882446289, 0.3630800247192383, 139.9763641357422, 24.864276885986328, -61.501224517822266
405, 2861080828, -2.7690646648406982, 8.06039810180664, -0.38712334632873535, 110.7707290649414, 18.972444534301758, -57.53342819213867
406, 2861097495, -3.2070043087005615, 7.629851818084717, -0.2690895199775696, 102.02175903320312, 19.029855728149414, -40.00041580200195
407, 2861114162, -3.2199649810791016, 7.952064514160156, -0.8850282430648804, 83.7294921875, 19.3619384765625, -21.642255783081055
408, 2861130829, -3.3596718311309814, 8.628759384155273, -1.389636516571045, 86.99119567871094, 20.265689849853516, -15.574647903442383
409, 2861147496, -3.4861135482788086, 8.893020629882812, -1.6058945655822754, 86.15670013427734, 18.38735580444336, -20.068960189819336
410, 2861164163, -3.279832124710083, 8.75930404663086, -1.9312175512313843, 85.34669494628906, 13.628812789916992, -20.723785400390625
411, 2861180830, -3.3641467094421387, 8.95868968963623, -2.045105218887329, 81.85196685791016, 13.215275764465332, -16.334897994995117
412, 2861197497, -3.5027706623077393, 9.397575378417969, -1.89597749710083, 83.9495620727539, 18.828773498535156, -13.19909954071045
413, 2861214164, -3.5939979553222656, 9.75359058380127, -2.9059793949127197, 95.81654357910156, 23.296249389648438, -17.01386070251465
414, 2861230831, -3.468615770339966, 10.00859260559082, -3.2159922122955322, 100.86963653564453, 23.22310447692871, -26.662521362304688
415, 2861247498, -3.64630126953125, 10.017884254455566, -2.8576626777648926, 122.26100158691406, 19.94607162475586, -35.95041275024414
416, 2861264165, -3.4392945766448975, 9.569575309753418, -4.101274490356445, 106.6059799194336, 13.323366165161133, -49.77354431152344
417, 2861280832, -3.6982736587524414, 9.017724990844727, -3.1710689067840576, 94.65167236328125, 8.474164962768555, -56.193748474121094
418, 2861297499, -3.3750550746917725, 8.858819007873535, -4.01999044418335, 75.48268127441406, 6.667329788208008, -51.07267761230469
419, 2861314166, -3.4143176078796387, 10.385788917541504, -4.303886890411377, 67.82435607910156, 4.21265172958374, -40.0560188293457
420, 2861330833, -3.619823455810547, 12.380769729614258, -4.760375022888184, 70.12220764160156, -4.251603126525879, -58.764549255371094
421, 2861347500, -3.67189621925354, 12.143256187438965, -5.269608020782471, 79.88179779052734, -17.170818328857422, -112.3727035522461
422, 2861364167, -3.353116273880005, 9.302633285522461, -4.952270984649658, 87.25714874267578, -28.893869400024414, -149.214111328125
423, 2861380834, -3.4414100646972656, 7.1760759353637695, -4.666114330291748, 99.73170471191406, -38.37636184692383, -143.6538543701172
424, 2861397501, -3.936061143875122, 6.988251209259033, -4.213686943054199, 120.83911895751953, -37.28273391723633, -127.3433837890625
425, 2861414168, -3.5538461208343506, 7.698328018188477, -4.497926235198975, 140.49591064453125, -38.17508316040039, -126.3644027709961
426, 2861430835, -5.32216739654541, 7.647249221801758, -2.92753529548645, 157.476318359375, -70.16199493408203, -157.99562072753906
427, 2861447502, -6.01827335357666, 4.174076080322266, -1.525297999382019, 121.5090560913086, -39.070804595947266, -187.85000610351562
428, 2861464169, -5.481234550476074, 2.201511859893799, -4.053285598754883, 75.22215270996094, 6.907311916351318, -140.25404357910156
429, 2861480836, -7.041800022125244, 4.986657619476318, -6.68128776550293, 58.81151580810547, 5.1644158363342285, -85.91638946533203
430, 2861497503, -7.98663330078125, 7.777128219604492, -8.093762397766113, 40.60284423828125, 0.7041115760803223, -104.60623168945312
431, 2861514170, -6.348371505737305, 7.958436012268066, -9.96689224243164, 29.34123992919922, -29.133134841918945, -150.2757568359375
432, 2861530837, -5.568286418914795, 5.5179762840271, -7.852353572845459, 68.84966278076172, -92.91050720214844, -200.9187469482422
433, 2861547504, -5.9129486083984375, 1.343022108078003, -3.760698080062866, 119.05055236816406, -122.06724548339844, -227.5885467529297
434, 2861564171, -6.819997787475586, -2.092679023742676, -0.49358484148979187, 108.78924560546875, -83.32369995117188, -206.3569793701172
435, 2861580838, -7.294067859649658, -3.1331849098205566, -1.3096375465393066, 59.35313415527344, -11.783658981323242, -137.12306213378906
436, 2861597505, -7.966909885406494, -1.3142513036727905, -4.625664234161377, 1.8723913431167603, 25.718456268310547, -78.6302490234375
437, 2861614172, -7.993051528930664, 0.7683628797531128, -7.814794063568115, -12.821447372436523, 9.234176635742188, -69.54763793945312
438, 2861630839, -8.097282409667969, 1.1975557804107666, -7.7729315757751465, 51.22333908081055, -33.7682991027832, -85.6070785522461
439, 2861647506, -8.073984146118164, 0.4998641312122345, -5.0436177253723145, 88.51313781738281, -66.4526596069336, -93.7291488647461
440, 2861664173, -8.29576301574707, 0.18840913474559784, -2.521387815475464, 93.05819702148438, -60.7602424621582, -94.88790130615234
441, 2861680840, -8.367646217346191, -0.5574402809143066, -1.72218656539917, 72.11814880371094, -31.79469871520996, -100.12535095214844
442, 2861697507, -8.49195671081543, -1.5840486288070679, -2.9361519813537598, 35.57621765136719, 3.9828977584838867, -94.13143157958984
443, 2861714174, -8.380786895751953, -2.139345645904541, -5.1344146728515625, 13.5816068649292, 18.02634620666504, -77.83145141601562
444, 2861730841, -8.15119743347168, -2.0924384593963623, -6.230916500091553, 19.27573585510254, 4.112540245056152, -59.23011779785156
445, 2861747508, -8.154687881469727, -1.4093810319900513, -5.766667366027832, 36.29680633544922, -16.545623779296875, -46.66529846191406
446, 2861764175, -8.90573501586914, -0.7169824242591858, -4.153194904327393, 41.26231384277344, -30.45420265197754, -50.83190155029297
447, 2861780842, -8.933053970336914, -1.17388916015625, -3.6636714935302734, 20.374267578125, -12.64732837677002, -69.17633819580078
448, 2861797509, -8.401487350463867, -2.262661933898926, -4.712184906005859, 8.95724868774414, -1.7798726558685303, -72.27841186523438
449, 2861814176, -8.3529052734375, -3.099052906036377, -5.214068412780762, 6.011137008666992, -4.674756050109863, -63.380889892578125
450, 2861830843, -8.493263244628906, -3.740551233291626, -5.149813652038574, 0.4364507496356964, -9.953516960144043, -49.33143615722656
451, 2861847510, -8.401410102844238, -4.071386337280273, -4.976043701171875, -8.911835670471191, -13.616410255432129, -30.684707641601562
452, 2861864177, -8.295938491821289, -3.47116756439209, -4.694751739501953, -6.548431873321533, -14.993409156799316, -6.691120624542236
453, 2861880844, -8.522957801818848, -2.1053245067596436, -4.27366304397583, -11.24586009979248, -15.887795448303223, 2.2007546424865723
454, 2861897511, -8.793756484985352, -1.0766503810882568, -4.374118804931641, -12.830109596252441, -10.715431213378906, -8.148088455200195
455, 2861914178, -8.926199913024902, -1.3959946632385254, -4.224249839782715, -21.244192123413086, -6.569507598876953, -27.961729049682617
456, 2861930845, -8.571588516235352, -2.699794054031372, -4.446782112121582, -47.62358856201172, -8.60269546508789, -34.62208938598633
457, 2861947512, -8.650826454162598, -3.529920816421509, -4.467594146728516, -74.44107055664062, -7.370150089263916, -23.56429672241211
458, 2861964179, -8.4931640625, -2.9526896476745605, -4.676551818847656, -83.37278747558594, 0.26232534646987915, 3.5722460746765137
459, 2861980846, -8.7382230758667, -1.401326060295105, -4.687663555145264, -87.32769775390625, 0.10602668672800064, 14.89224910736084
460, 2861997513, -8.807918548583984, -0.7269014120101929, -4.644394874572754, -101.97684478759766, -5.3745036125183105, 0.34588658809661865
461, 2862014180, -8.828439712524414, -0.9319503903388977, -4.46726655960083, -125.96656799316406, -8.95742416381836, -14.846169471740723
462, 2862030847, -8.68320369720459, -1.339107632637024, -4.679257869720459, -149.09884643554688, -6.589780330657959, -22.903499603271484
463, 2862047514, -8.627559661865234, -1.6545051336288452, -4.93925666809082, -140.89712524414062, -1.183506727218628, -21.786081314086914
464, 2862064181, -8.164052963256836, -1.4821783304214478, -5.478634357452393, -116.37527465820312, 1.6261320114135742, -7.7011213302612305
465, 2862080848, -8.486116409301758, -1.0922542810440063, -5.167884826660156, -91.87973022460938, -4.318134784698486, 0.20053419470787048
466, 2862097515, -8.609740257263184, -0.8794813752174377, -4.826476097106934, -94.91575622558594, -9.197317123413086, -2.80898380279541
467, 2862114182, -8.809847831726074, -0.8295773863792419, -4.307724952697754, -110.07876586914062, -6.264791965484619, -9.233983039855957
468, 2862130849, -8.570724487304688, -0.8592362403869629, -4.315895080566406, -123.1574935913086, 6.7698163986206055, -12.093500137329102
469, 2862147516, -8.348274230957031, -0.8260250687599182, -5.24480676651001, -114.81035614013672, 17.309795379638672, -1.0880472660064697
470, 2862164183, -8.430329322814941, -0.024060197174549103, -5.7146525382995605, -72.25662231445312, 16.501222610473633, 17.270566940307617
471, 2862180850, -8.757179260253906, 0.40439456701278687, -5.383244514465332, -59.575927734375, 7.258490562438965, 10.544041633605957
472, 2862197517, -8.834312438964844, 0.17540158331394196, -4.922782897949219, -81.8724136352539, 3.228724241256714, -4.213632106781006
473, 2862214184, -8.816900253295898, -0.3323374092578888, -4.556673526763916, -124.81289672851562, 4.792420387268066, -10.336437225341797
474, 2862230851, -8.737380981445312, -0.31785908341407776, -4.31879186630249, -182.88531494140625, 11.165688514709473, -8.675525665283203
475, 2862247518, -8.259781837463379, -0.22716030478477478, -4.666401386260986, -212.82073974609375, 24.03444480895996, 1.0607357025146484
476, 2862264185, -7.950984001159668, 0.5759290456771851, -5.561049938201904, -170.0281219482422, 28.28041648864746, 25.823959350585938
477, 2862280852, -8.340309143066406, 1.3596402406692505, -5.6363725662231445, -123.31604766845703, 27.112491607666016, 29.690317153930664
478, 2862297519, -8.466205596923828, 1.7203552722930908, -5.689931869506836, -96.69192504882812, 22.38192367553711, 22.74265480041504
479, 2862314186, -8.509896278381348, 1.7368524074554443, -5.485557556152344, -103.54856872558594, 15.831157684326172, 11.517412185668945
480, 2862330853, -8.433415412902832, 1.508843183517456, -5.348211765289307, -129.45033264160156, 12.64293384552002, 4.515897750854492
481, 2862347520, -8.350920677185059, 1.3183274269104004, -5.08371114730835, -163.3899383544922, 13.3666353225708, 5.545631408691406
482, 2862364187, -7.965622901916504, 1.5924910306930542, -5.578274250030518, -182.1455535888672, 11.753898620605469, 14.665934562683105
483, 2862380854, -8.09854507446289, 2.0441102981567383, -5.502967357635498, -159.5268096923828, 6.3526129722595215, 20.65615463256836
484, 2862397521, -8.176423072814941, 2.1841235160827637, -5.386552333831787, -151.14306640625, 0.36389005184173584, 16.74688720703125
485, 2862414188, -8.093303680419922, 2.448096513748169, -5.461560249328613, -133.67971801757812, -5.4604668617248535, 18.95171546936035
486, 2862430855, -8.12503433227539, 3.2020790576934814, -5.582840919494629, -103.09263610839844, -12.907488822937012, 30.44069480895996
487, 2862447522, -8.468600273132324, 3.872332811355591, -4.979710102081299, -92.63089752197266, -18.357738494873047, 28.605321884155273
488, 2862464189, -8.355026245117188, 3.9660704135894775, -4.5874762535095215, -118.45609283447266, -26.542680740356445, 16.90944480895996
489, 2862480856, -8.476689338684082, 3.6476759910583496, -3.77768874168396, -154.51950073242188, -30.82918357849121, 3.0875096321105957
490, 2862497523, -8.328384399414062, 3.198643922805786, -3.25390362739563, -195.92298889160156, -28.48390007019043, -3.133967638015747
491, 2862514190, -8.106575012207031, 3.2079246044158936, -2.92216157913208, -226.55447387695312, -20.536794662475586, 1.4644362926483154
492, 2862530857, -8.175430297851562, 3.83327579498291, -2.930418014526367, -207.77117919921875, -11.349320411682129, 15.61612319946289
493, 2862547524, -8.372062683105469, 4.699666500091553, -2.7247536182403564, -187.48666381835938, -7.713020324707031, 23.149288177490234
494, 2862564191, -8.479949951171875, 5.170873641967773, -2.3222882747650146, -190.97802734375, -5.3392744064331055, 15.581589698791504
495, 2862580858, -8.521463394165039, 5.279829978942871, -1.8889341354370117, -220.0413818359375, -4.167269706726074, 1.80478036403656
496, 2862597525, -8.391626358032227, 5.332505226135254, -2.1360011100769043, -234.18746948242188, -2.533919334411621, -5.506566524505615
497, 2862614192, -8.377846717834473, 5.33497428894043, -1.6644635200500488, -226.94886779785156, 4.0800323486328125, -11.01552963256836
498, 2862630859, -8.342947959899902, 5.133133411407471, -1.5539460182189941, -234.21771240234375, 6.726182460784912, -14.889121055603027
499, 2862647526, -8.259431838989258, 5.103370666503906, -1.3898365497589111, -237.80909729003906, 4.693628311157227, -15.32298469543457
500, 2862664193, -8.422450065612793, 5.15100622177124, -1.0609537363052368, -211.7938232421875, 5.734206199645996, -14.915020942687988
501, 2862680860, -8.533576965332031, 5.115351676940918, -0.21455103158950806, -232.06597900390625, 12.542978286743164, -22.34992027282715
502, 2862697527, -8.385185241699219, 4.875368595123291, -0.3968082666397095, -245.33689880371094, 26.569669723510742, -21.161666870117188
503, 2862714194, -8.217007637023926, 4.8066325187683105, -0.23469893634319305, -272.2244873046875, 28.633056640625, -17.995311737060547
504, 2862730861, -8.16601276397705, 4.8249382972717285, -0.055382996797561646, -265.32000732421875, 31.490631103515625, -14.066866874694824
505, 2862747528, -8.352335929870605, 4.855465888977051, -0.31720563769340515, -209.6357421875, 30.739669799804688, -8.295360565185547
506, 2862764195, -8.719062805175781, 5.174457550048828, 0.4844455420970917, -167.6055450439453, 27.741741180419922, -12.580463409423828
507, 2862780862, -8.730788230895996, 5.082944393157959, 0.02336353063583374, -155.1698760986328, 20.966054916381836, -22.730688095092773
508, 2862797529, -8.775418281555176, 4.759281158447266, 0.2691415250301361, -126.26434326171875, 10.928550720214844, -30.41537857055664
509, 2862814196, -8.732135772705078, 4.246849060058594, 1.009467363357544, -136.84732055664062, 2.2330286502838135, -36.78532409667969
510, 2862830863, -8.694111824035645, 3.757197380065918, 1.5275946855545044, -148.72540283203125, 1.0377135276794434, -34.85036849975586
511, 2862847530, -8.662796974182129, 3.5211079120635986, 1.8592795133590698, -164.5050811767578, 8.834213256835938, -30.039213180541992
512, 2862864197, -8.67728042602539, 3.3708994388580322, 1.650679111480713, -166.82598876953125, 17.931907653808594, -25.290538787841797
513, 2862880864, -8.732803344726562, 3.3669066429138184, 1.5308685302734375, -162.16574096679688, 21.71240234375, -18.721595764160156
514, 2862897531, -8.849688529968262, 3.398829460144043, 1.8407796621322632, -168.06520080566406, 20.877992630004883, -14.404370307922363
515, 2862914198, -8.938850402832031, 3.3581624031066895, 1.937793254852295, -179.2057647705078, 19.320762634277344, -13.979740142822266
516, 2862930865, -9.030506134033203, 3.3014023303985596, 1.8387166261672974, -163.9085235595703, 20.80756378173828, -14.464012145996094
517, 2862947532, -8.927491188049316, 3.139899969100952, 1.7442058324813843, -154.79737854003906, 21.188438415527344, -19.213815689086914
518, 2862964199, -8.834563255310059, 2.9333553314208984, 1.4083572626113892, -139.8563232421875, 17.893362045288086, -21.745922088623047
519, 2862980866, -8.84843635559082, 2.587904930114746, 1.721239447593689, -157.29110717773438, 10.263998031616211, -29.773775100708008
520, 2862997533, -8.829874992370605, 2.116180181503296, 2.1729917526245117, -186.6370849609375, 4.672571659088135, -32.074241638183594
521, 2863014200, -9.078752517700195, 1.784837245941162, 2.2404685020446777, -189.10226440429688, 6.119915962219238, -25.444669723510742
522, 2863030867, -9.21286392211914, 1.7726342678070068, 2.724076747894287, -159.42230224609375, 13.514756202697754, -17.843975067138672
523, 2863047534, -9.191789627075195, 1.7582257986068726, 2.8277103900909424, -145.70545959472656, 19.45153045654297, -14.962309837341309
524, 2863064201, -9.14680290222168, 1.690911054611206, 2.571521520614624, -146.8502655029297, 24.13310432434082, -14.338273048400879
525, 2863080868, -9.15403938293457, 1.5268328189849854, 2.2168307304382324, -146.49874877929688, 25.523361206054688, -17.81510353088379
526, 2863097535, -9.178849220275879, 1.1208562850952148, 2.186793804168701, -146.5032958984375, 21.59086036682129, -21.912738800048828
527, 2863114202, -9.26457691192627, 0.6359425783157349, 1.9076834917068481, -133.808837890625, 16.7133846282959, -21.10088348388672
528, 2863130869, -9.185760498046875, 0.3085658848285675, 2.1899771690368652, -101.88643646240234, 15.35752010345459, -13.75579833984375
529, 2863147536, -9.21054744720459, 0.19870096445083618, 2.5287461280822754, -90.74628448486328, 18.20281219482422, -6.234000205993652
530, 2863164203, -9.139391899108887, 0.26704564690589905, 2.5063669681549072, -103.5611343383789, 21.129972457885742, -2.1252975463867188
531, 2863180870, -9.133319854736328, 0.30605781078338623, 2.572948932647705, -115.20712280273438, 25.01566505432129, 3.2749874591827393
532, 2863197537, -9.337285995483398, 0.421686589717865, 2.682713508605957, -127.00393676757812, 29.799419403076172, 8.164173126220703
533, 2863214204, -9.394740104675293, 0.38908347487449646, 2.445758104324341, -132.7915496826172, 35.05403518676758, 6.795912265777588
534, 2863230871, -9.271629333496094, 0.32978883385658264, 2.0438427925109863, -131.78761291503906, 37.94551086425781, 5.678488731384277
535, 2863247538, -9.06461238861084, 0.38490384817123413, 1.4277905225753784, -131.8913116455078, 34.499427795410156, 7.497226238250732
536, 2863264205, -9.255931854248047, 0.49846217036247253, 1.0432515144348145, -121.32630157470703, 26.451486587524414, 8.533939361572266
537, 2863280872, -9.562766075134277, 0.34072446823120117, 1.1042568683624268, -106.59227752685547, 15.6640043258667, 2.336761474609375
538, 2863297539, -9.597678184509277, 0.02057711035013199, 1.349810004234314, -96.36618041992188, 8.973129272460938, -4.601390361785889
539, 2863314206, -9.525586128234863, -0.2516704499721527, 1.6190516948699951, -82.8446273803711, 6.752549171447754, -5.667613983154297
540, 2863330873, -9.570234298706055, -0.3186665177345276, 1.8733587265014648, -70.83110809326172, 8.606527328491211, -4.671840190887451
541, 2863347540, -9.478759765625, -0.4162093698978424, 1.737399935722351, -61.177574157714844, 12.612959861755371, -3.113394021987915
542, 2863364207, -9.376437187194824, -0.3024241626262665, 1.622617244720459, -58.21840286254883, 14.11796760559082, -1.8647304773330688
543, 2863380874, -9.368025779724121, -0.3548000454902649, 1.6532279253005981, -72.62122344970703, 14.973188400268555, -3.949568033218384
544, 2863397541, -9.468622207641602, -0.39839550852775574, 1.5547233819961548, -80.38829803466797, 16.17291831970215, -5.791912078857422
545, 2863414208, -9.124007225036621, -0.9292246103286743, -0.4548417925834656, -63.51750946044922, 16.255048751831055, -8.466935157775879
546, 2863430875, -9.691144943237305, -1.05752432346344, 5.045752048492432, 49.267574310302734, 29.64126968383789, 14.672918319702148
547, 2863447542, -9.412984848022461, -0.7357006072998047, 0.6720578670501709, -126.81672668457031, 25.346965789794922, 16.10737419128418
548, 2863464209, -9.451241493225098, -0.20735317468643188, 1.2680246829986572, -106.42131042480469, 30.233945846557617, 17.57894515991211
549, 2863480876, -9.403826713562012, -0.034989144653081894, 0.6231801509857178, -80.18362426757812, 29.220491409301758, 15.81795883178711
550, 2863497543, -9.399102210998535, 0.36153364181518555, 0.6603835225105286, -76.07469940185547, 21.646270751953125, 9.61266803741455
551, 2863514210, -9.542698860168457, 0.5378770232200623, 0.7080866098403931, -63.856117248535156, 17.30021858215332, -1.775346040725708
552, 2863530877, -9.645626068115234, 0.4330492615699768, 0.8958281874656677, -52.79888916015625, 19.277462005615234, -15.846863746643066
553, 2863547544, -9.759830474853516, -0.05281715467572212, 0.6620498299598694, -33.66157913208008, 18.38578224182129, -26.456083297729492
554, 2863564211, -9.662615776062012, -0.6485402584075928, 0.797278642654419, -26.086393356323242, 14.891376495361328, -30.449365615844727
555, 2863580878, -9.412920951843262, -1.1358370780944824, 1.0303702354431152, -27.889978408813477, 12.611533164978027, -27.80286979675293
556, 2863597545, -9.471202850341797, -1.226203203201294, 1.1579877138137817, -46.831634521484375, 13.249918937683105, -21.340187072753906
557, 2863614212, -9.577506065368652, -1.1534011363983154, 1.2167017459869385, -59.432090759277344, 19.846372604370117, -19.18754768371582
558, 2863630879, -9.70645523071289, -1.174880862236023, 0.8240219950675964, -68.92928314208984, 26.09762954711914, -19.524499893188477
559, 2863647546, -9.45541000366211, -1.2709228992462158, 0.6590800881385803, -72.13888549804688, 28.034875869750977, -19.202463150024414
560, 2863664213, -9.40150260925293, -1.2945677042007446, 0.3800109922885895, -81.86859130859375, 27.344341278076172, -16.364013671875
561, 2863680880, -9.385603904724121, -1.1919187307357788, 0.20501121878623962, -78.8396224975586, 29.8798828125, -13.433937072753906
562, 2863697547, -9.416011810302734, -1.034152865409851, 0.10023456811904907, -79.12067413330078, 29.6419734954834, -13.175728797912598
563, 2863714214, -9.48160457611084, -0.9422943592071533, -0.06927119940519333, -70.56278228759766, 26.63909912109375, -15.54539966583252
564, 2863730881, -9.48810863494873, -1.0405833721160889, -0.06668666005134583, -58.65332794189453, 21.853498458862305, -18.65116310119629
565, 2863747548, -9.373570442199707, -1.2672089338302612, 0.35217374563217163, -58.81918716430664, 18.851234436035156, -19.931047439575195
566, 2863764215, -9.560365676879883, -1.501044511795044, 0.445252925157547, -64.4586410522461, 23.348127365112305, -18.979719161987305
567, 2863780882, -9.725188255310059, -1.7157633304595947, 0.027700349688529968, -50.471927642822266, 33.616519927978516, -17.931842803955078
568, 2863797549, -9.511093139648438, -1.768174409866333, -0.5716586709022522, -44.84012222290039, 37.86600875854492, -16.39651870727539
569, 2863814216, -9.498549461364746, -1.7458876371383667, -0.9752835631370544, -40.95334243774414, 34.93192672729492, -16.568525314331055
570, 2863830883, -9.493122100830078, -1.7716033458709717, -1.1161103248596191, -46.2011833190918, 31.331058502197266, -18.888402938842773
571, 2863847550, -9.42553997039795, -1.8097585439682007, -1.2201969623565674, -50.04716110229492, 28.961740493774414, -22.124343872070312
572, 2863864217, -9.436660766601562, -1.910478115081787, -1.4098312854766846, -54.623836517333984, 28.224002838134766, -24.884613037109375
573, 2863880884, -9.357300758361816, -2.039609670639038, -1.4011590480804443, -50.66120910644531, 27.653656005859375, -25.39780616760254
574, 2863897551, -9.237496376037598, -2.165170669555664, -1.1301660537719727, -51.60087203979492, 26.490442276000977, -23.254549026489258
575, 2863914218, -9.583335876464844, -2.2304089069366455, -1.0233217477798462, -53.10895538330078, 29.348817825317383, -21.301265716552734
576, 2863930885, -9.481559753417969, -2.272381067276001, -1.0416746139526367, -43.44886779785156, 35.71986389160156, -19.73814582824707
577, 2863947552, -9.278921127319336, -2.1617820262908936, -1.2540980577468872, -43.738441467285156, 39.571258544921875, -17.982826232910156
578, 2863964219, -9.057853698730469, -1.9157888889312744, -1.5796877145767212, -42.044212341308594, 42.75947570800781, -16.140764236450195
579, 2863980886, -8.879901885986328, -1.4900882244110107, -1.81907320022583, -40.33332824707031, 44.11030197143555, -17.20912742614746
580, 2863997553, -8.825357437133789, -1.1815029382705688, -1.93696129322052, -37.842899322509766, 44.198158264160156, -23.7360897064209
581, 2864014220, -8.882253646850586, -1.1539287567138672, -1.6685949563980103, -35.74361038208008, 46.01272964477539, -34.55396270751953
582, 2864030887, -8.948348045349121, -1.4712104797363281, -1.3435828685760498, -30.534788131713867, 52.3037109375, -45.990482330322266
583, 2864047554, -9.035505294799805, -2.0437588691711426, -1.2519094944000244, -30.28289031982422, 64.78933715820312, -54.627708435058594
584, 2864064221, -8.964649200439453, -2.5828592777252197, -1.673370599746704, -34.27067947387695, 79.63163757324219, -58.401512145996094
585, 2864080888, -8.72984504699707, -2.9504008293151855, -2.3432259559631348, -38.922386169433594, 90.88401794433594, -57.283573150634766
586, 2864097555, -8.505441665649414, -3.0959558486938477, -3.103318452835083, -45.38826370239258, 95.90056610107422, -53.77120590209961
587, 2864114222, -8.359177589416504, -3.096219301223755, -3.810767889022827, -48.6039924621582, 94.09259796142578, -50.240440368652344
588, 2864130889, -8.262845039367676, -3.0276098251342773, -4.309742450714111, -44.41551971435547, 87.82291412353516, -49.186622619628906
589, 2864147556, -7.867455005645752, -2.920056104660034, -4.486667156219482, -36.709716796875, 79.77835845947266, -49.40214920043945
590, 2864164223, -7.486070156097412, -2.5520706176757812, -4.229109287261963, -36.431785583496094, 74.8920669555664, -49.31393814086914
591, 2864180890, -7.430751323699951, -2.2394180297851562, -3.9551641941070557, -32.63825607299805, 76.42831420898438, -52.60519790649414
592, 2864197557, -7.706736087799072, -2.245089054107666, -4.2489776611328125, -11.496959686279297, 83.49362182617188, -62.14487838745117
593, 2864214224, -7.733177185058594, -2.8336591720581055, -4.948540687561035, 33.71242141723633, 84.31343078613281, -73.70767974853516
594, 2864230891, -6.503106117248535, -3.2649197578430176, -4.923183917999268, 69.54942321777344, 78.60516357421875, -77.1174545288086
595, 2864247558, -4.823899269104004, -2.5022590160369873, -3.371687173843384, 40.75896072387695, 71.95906066894531, -69.79368591308594
596, 2864264225, -5.690173625946045, -1.3359917402267456, -2.084580421447754, -15.561315536499023, 82.50946044921875, -80.53014373779297
597, 2864280892, -7.632115840911865, -1.8310853242874146, -1.78741455078125, -9.459906578063965, 118.60079956054688, -125.4384765625
598, 2864297559, -7.740536212921143, -4.3446760177612305, -2.7874956130981445, 20.489452362060547, 159.0742950439453, -176.77381896972656
599, 2864314226, -6.6003923416137695, -6.187870502471924, -5.733182907104492, 148.31809997558594, 192.8159637451172, -182.23239135742188
600, 2864330893, -4.281397819519043, -6.914994716644287, -5.297351360321045, 162.6007843017578, 215.03488159179688, -198.41348266601562
601, 2864347560, -2.374065637588501, -7.6608052253723145, -6.2822184562683105, 109.90135955810547, 203.88677978515625, -185.17262268066406
602, 2864364227, -2.258049726486206, -8.303520202636719, -7.66681432723999, -12.50629711151123, 177.9501190185547, -175.8145751953125
603, 2864380894, -3.165100336074829, -8.80284309387207, -9.097342491149902, -30.737600326538086, 150.2289581298828, -163.92652893066406
604, 2864397561, -2.74436092376709, -9.285429954528809, -8.891544342041016, -13.686220169067383, 122.33568572998047, -165.08700561523438
605, 2864414228, -1.5580216646194458, -9.160029411315918, -8.991642951965332, 14.903379440307617, 100.13645935058594, -167.16189575195312
606, 2864430895, 0.009705312550067902, -9.212961196899414, -9.006449699401855, 3.2681148052215576, 74.97401428222656, -126.03099060058594
607, 2864447562, -0.3822535276412964, -9.605916023254395, -8.29552173614502, 25.8051700592041, 60.311397552490234, -71.9455795288086
608, 2864464229, -0.49244195222854614, -9.007858276367188, -8.225739479064941, 22.8936767578125, 51.68077087402344, -48.667236328125
609, 2864480896, -0.5604380965232849, -8.364635467529297, -8.116612434387207, 25.234535217285156, 44.5513801574707, -39.81519317626953
610, 2864497563, -0.6079493761062622, -8.165035247802734, -7.891810894012451, 22.876588821411133, 33.70973205566406, -40.59927749633789
611, 2864514230, -0.5116257071495056, -8.408452987670898, -7.533924579620361, 15.484681129455566, 23.500516891479492, -43.37167739868164
612, 2864530897, -0.29362159967422485, -8.73160171508789, -7.268898963928223, 9.134862899780273, 18.101417541503906, -38.813133239746094
613, 2864547564, -0.2582496404647827, -8.720029830932617, -6.978588581085205, -0.1348641961812973, 17.684864044189453, -28.310441970825195
614, 2864564231, -0.5565382838249207, -8.535900115966797, -7.148515224456787, -17.132474899291992, 16.46234893798828, -22.334613800048828
615, 2864580898, -0.6679607629776001, -8.560413360595703, -7.338301181793213, -9.332852363586426, 13.590132713317871, -18.271690368652344
616, 2864597565, -0.35884636640548706, -8.62617015838623, -7.240562438964844, -3.730940103530884, 7.8281354904174805, -9.930150985717773
617, 2864614232, -0.3004419207572937, -8.490697860717773, -7.278989315032959, 10.425734519958496, 3.318516492843628, 2.5741477012634277
618, 2864630899, -0.11737393587827682, -7.971142292022705, -6.914931297302246, 16.40652847290039, 1.8272318840026855, 12.412015914916992
619, 2864647566, -0.36513957381248474, -7.218389511108398, -6.715551853179932, 7.907844543457031, 3.5486488342285156, 13.328289985656738
620, 2864664233, -0.8196672797203064, -7.010125637054443, -7.010982513427734, 18.37388801574707, 7.117208957672119, 1.5641376972198486
621, 2864680900, -0.6053453683853149, -7.460996627807617, -6.994065761566162, 46.878814697265625, 7.791005611419678, -6.82219123840332
622, 2864697567, -0.5104351043701172, -7.841344356536865, -6.530991077423096, 52.77942657470703, 4.949774742126465, -7.933498859405518
623, 2864714234, -0.5892250537872314, -8.120880126953125, -6.710460186004639, 70.18016815185547, 3.633026361465454, -3.7762229442596436
624, 2864730901, -1.108043909072876, -7.046288013458252, -6.203466892242432, 157.96287536621094, 10.27704906463623, -2.2298593521118164
625, 2864747568, -1.0275440216064453, -6.309251308441162, -4.997597694396973, 152.4649658203125, 21.377948760986328, -49.00114059448242
626, 2864764235, -0.6307247281074524, -6.350566387176514, -4.095701694488525, 183.38356018066406, 45.79485321044922, -87.09432983398438
627, 2864780902, 0.048140689730644226, -6.623818874359131, -3.845156192779541, 197.0869140625, 64.29340362548828, -124.74138641357422
628, 2864797569, -0.3918989896774292, -7.441171646118164, -6.041624069213867, 277.60693359375, 72.21736907958984, -156.69293212890625
629, 2864814236, 1.987977385520935, -7.373182773590088, -6.468104839324951, 632.75537109375, 69.41192626953125, -146.22833251953125
630, 2864830903, 2.2332775592803955, -6.31468391418457, 1.5056877136230469, 822.9522094726562, 44.829559326171875, -147.22276306152344
631, 2864847570, 1.7439589500427246, -7.169262409210205, 5.609691143035889, 678.1195068359375, 3.580967426300049, -176.5902099609375
632, 2864864237, 3.161999464035034, -8.469799995422363, 8.124571800231934, 415.34942626953125, 9.243989944458008, -199.18922424316406
633, 2864880904, 4.352778911590576, -10.104679107666016, 6.204868316650391, 224.2059783935547, 23.702367782592773, -190.8770294189453
634, 2864897571, 4.831334590911865, -11.267434120178223, 4.498246669769287, 207.784423828125, 39.20866012573242, -147.6634979248047
635, 2864914238, 4.907765865325928, -11.55815601348877, 5.691914081573486, 202.17410278320312, 44.83246612548828, -81.04591369628906
636, 2864930905, 4.805453777313232, -11.129133224487305, 6.17985725402832, 83.76943969726562, 34.58995056152344, -17.823566436767578
637, 2864947572, 4.441738605499268, -9.927922248840332, 4.8935651779174805, -2.412332773208618, 21.079517364501953, 33.61990737915039
638, 2864964239, 3.7624542713165283, -8.403310775756836, 4.315303802490234, 34.17525100708008, 9.91909408569336, 63.48638916015625
639, 2864980906, 2.8760933876037598, -7.113055229187012, 5.461913585662842, 123.91451263427734, 6.808040142059326, 69.4386215209961
640, 2864997573, 2.899915933609009, -5.8869452476501465, 6.670510768890381, 149.94247436523438, 10.923238754272461, 46.792816162109375
641, 2865014240, 2.7648212909698486, -5.279067039489746, 6.757229328155518, 179.6826629638672, 34.686214447021484, 15.560986518859863
642, 2865030907, 2.6507129669189453, -5.109748363494873, 7.329407215118408, 183.42373657226562, 56.879615783691406, -14.804986953735352
643, 2865047574, 2.6876707077026367, -5.498691082000732, 7.009312152862549, 163.96853637695312, 67.85810089111328, -34.1219367980957
644, 2865064241, 2.868994951248169, -5.812387466430664, 6.547996997833252, 154.30821228027344, 70.3989486694336, -35.45962142944336
645, 2865080908, 2.8415284156799316, -5.8092193603515625, 6.383169174194336, 159.13259887695312, 58.61906051635742, -28.042884826660156
646, 2865097575, 2.860322952270508, -5.466306209564209, 7.185572147369385, 172.12269592285156, 35.66686248779297, -23.3566951751709
647, 2865114242, 2.66795015335083, -4.961824417114258, 8.117176055908203, 178.07449340820312, 21.278072357177734, -15.099923133850098
648, 2865130909, 2.62660813331604, -4.34147310256958, 9.12777328491211, 181.34332275390625, 16.62877082824707, -9.274676322937012
649, 2865147576, 2.8625574111938477, -4.042945384979248, 10.889970779418945, 119.09007263183594, 8.71882438659668, -10.391494750976562
650, 2865164243, 3.1696016788482666, -4.6702799797058105, 9.387682914733887, 23.18821144104004, 27.734792709350586, -0.9370320439338684
651, 2865180910, 3.175168991088867, -4.515919208526611, 8.344160079956055, 50.06736755371094, 58.5577278137207, 14.408446311950684
652, 2865197577, 2.3713865280151367, -3.8827567100524902, 9.453292846679688, 76.36286163330078, 73.01235961914062, 30.427324295043945
653, 2865214244, 2.3371927738189697, -3.752872943878174, 9.727677345275879, 19.9523983001709, 57.97623825073242, 37.320735931396484
654, 2865230911, 2.4950475692749023, -3.7115015983581543, 9.455126762390137, 7.134929180145264, 53.79179382324219, 48.65120315551758
655, 2865247578, 2.2528176307678223, -3.637270450592041, 9.325528144836426, 8.024139404296875, 58.34747314453125, 52.3386344909668
656, 2865264245, 1.928681492805481, -3.2816693782806396, 9.550541877746582, 21.222715377807617, 63.22389221191406, 55.8289909362793
657, 2865280912, 1.7856988906860352, -3.0331499576568604, 9.686556816101074, -8.69614315032959, 59.716617584228516, 52.361061096191406
658, 2865297579, 1.6971676349639893, -3.000070333480835, 9.172749519348145, -22.72492218017578, 63.383296966552734, 47.335296630859375
659, 2865314246, 1.3691726922988892, -3.026080846786499, 8.908357620239258, -20.2485408782959, 66.90675354003906, 43.46628189086914
660, 2865330913, 1.0604274272918701, -3.0393409729003906, 8.818424224853516, -20.786399841308594, 77.68462371826172, 39.74721908569336
661, 2865347580, 0.7047669887542725, -3.023780584335327, 8.396665573120117, -24.32657241821289, 86.01201629638672, 37.59324264526367
662, 2865364247, 0.40015164017677307, -2.9945201873779297, 8.075130462646484, -32.326324462890625, 85.79168701171875, 35.946083068847656
663, 2865380914, 0.10600379854440689, -3.056440591812134, 7.806964874267578, -14.726415634155273, 80.6619644165039, 33.1808967590332
664, 2865397581, -0.475807785987854, -3.284466028213501, 8.231289863586426, 4.5775532722473145, 83.4738540649414, 30.568843841552734
665, 2865414248, -0.8147133588790894, -3.333068609237671, 8.319561004638672, 20.908180236816406, 100.37999725341797, 36.88716506958008
666, 2865430915, -0.895719587802887, -3.3070425987243652, 8.324748039245605, 19.53851318359375, 102.13432312011719, 38.2374382019043
667, 2865447582, -1.1197203397750854, -3.302626848220825, 8.274292945861816, 15.916360855102539, 97.36007690429688, 39.667301177978516
668, 2865464249, -1.3168153762817383, -3.126044988632202, 8.391763687133789, 17.200332641601562, 86.64462280273438, 41.95799255371094
669, 2865480916, -2.1885104179382324, -3.0551347732543945, 8.734972953796387, 12.900084495544434, 86.31463623046875, 44.25529861450195
670, 2865497583, -2.511582374572754, -2.8615496158599854, 8.591371536254883, -0.7124958634376526, 92.21773529052734, 49.0102653503418
671, 2865514250, -2.4571523666381836, -2.363966703414917, 8.540072441101074, -7.147546768188477, 87.41783142089844, 45.54275894165039
672, 2865530917, -2.736987590789795, -2.4000580310821533, 7.726176738739014, -28.31593894958496, 90.47258758544922, 27.081199645996094
673, 2865547584, -2.869605779647827, -2.777902364730835, 6.714237689971924, 19.748212814331055, 109.2841796875, 19.33426856994629
674, 2865564251, -3.226503849029541, -3.145387649536133, 7.029303073883057, 77.70179748535156, 118.4883041381836, 23.26776123046875
675, 2865580918, -3.161449432373047, -3.471930503845215, 6.896188259124756, 90.24048614501953, 121.12844848632812, 27.056127548217773
676, 2865597585, -3.3566575050354004, -3.556356906890869, 6.907697677612305, 103.73724365234375, 121.06561279296875, 34.787174224853516
677, 2865614252, -3.7192275524139404, -3.2965354919433594, 6.872005462646484, 66.64614868164062, 115.97986602783203, 40.03936004638672
678, 2865630919, -4.095251560211182, -2.8560404777526855, 6.315121173858643, 6.549898624420166, 103.49470520019531, 42.74979019165039
679, 2865647586, -4.535175323486328, -2.434070110321045, 5.47069787979126, -30.951160430908203, 82.01016235351562, 49.743988037109375
680, 2865664253, -5.021885871887207, -1.8200643062591553, 5.348297119140625, -26.451400756835938, 53.14781188964844, 60.250732421875
681, 2865680920, -5.664261341094971, -1.1692012548446655, 5.771975040435791, -17.590970993041992, 23.782522201538086, 62.25468826293945
682, 2865697587, -5.73655891418457, -0.8007283210754395, 6.1570353507995605, -1.933790683746338, 1.452811598777771, 53.2424201965332
683, 2865714254, -5.498486518859863, -0.8064500093460083, 6.398141384124756, 73.98941040039062, 2.8590221405029297, 36.50593566894531
684, 2865730921, -5.549807548522949, -0.5053873062133789, 8.055636405944824, 131.63307189941406, -5.041879653930664, 32.905723571777344
685, 2865747588, -6.044092178344727, -0.38525182008743286, 9.305875778198242, 114.76094818115234, 2.2219791412353516, 28.443294525146484
686, 2865764255, -6.151089191436768, -0.23322831094264984, 9.58192253112793, 63.73137664794922, 41.835166931152344, 18.987396240234375
687, 2865780922, -5.3724870681762695, -0.4599780738353729, 8.36788558959961, 15.975631713867188, 64.26026153564453, 7.909965515136719
688, 2865797589, -5.727181434631348, -1.0757580995559692, 7.107423305511475, 10.709589958190918, 79.0491943359375, 8.013395309448242
689, 2865814256, -5.61023473739624, -1.2710272073745728, 6.265089988708496, -0.9111536741256714, 77.58271789550781, 17.48674964904785
690, 2865830923, -5.6496171951293945, -1.1872782707214355, 5.7529072761535645, -19.907772064208984, 54.82850646972656, 29.800498962402344
691, 2865847590, -6.157870769500732, -0.9126464128494263, 5.325791358947754, -31.41733741760254, 33.632659912109375, 40.19388961791992
692, 2865864257, -6.876920223236084, -0.13044454157352448, 4.578084945678711, -4.371665954589844, 25.379501342773438, 43.73099899291992
693, 2865880924, -6.171677112579346, 0.45804375410079956, 4.2141265869140625, -33.2437629699707, -13.792409896850586, 21.611637115478516
694, 2865897591, -6.281897068023682, 0.6545433402061462, 4.477583885192871, -10.24771499633789, -47.18169403076172, -7.483031749725342
695, 2865914258, -6.449569225311279, 0.6307939291000366, 5.414227485656738, 8.395450592041016, -83.94095611572266, -25.275787353515625
696, 2865930925, -6.181729793548584, 0.4591527283191681, 6.655467510223389, 49.886409759521484, -103.06978607177734, -29.648649215698242
697, 2865947592, -5.692713737487793, 0.3786270022392273, 8.282482147216797, 93.03145599365234, -95.90471649169922, -39.29398727416992
698, 2865964259, -5.453191757202148, 0.2284012734889984, 9.308674812316895, 84.7098617553711, -72.4654312133789, -55.777591705322266
699, 2865980926, -5.331894397735596, -0.09410727769136429, 8.880101203918457, 58.678619384765625, -43.21712875366211, -69.95377349853516
700, 2865997593, -5.1507649421691895, -0.44071608781814575, 8.199532508850098, 86.7351303100586, -18.375337600708008, -65.65853881835938
701, 2866014260, -4.980039119720459, -0.5818793177604675, 8.221606254577637, 107.21043395996094, -2.9796302318573, -57.91668701171875
702, 2866030927, -4.350700855255127, -0.5864615440368652, 8.196195602416992, 102.93218231201172, -11.213499069213867, -44.71138000488281
703, 2866047594, -4.363773345947266, -0.5261406898498535, 8.438910484313965, 98.02542877197266, -16.116607666015625, -33.021644592285156
704, 2866064261, -4.667733192443848, -0.2456367164850235, 8.75123119354248, 106.50146484375, -1.8072285652160645, -15.560757637023926
705, 2866080928, -4.8743205070495605, 0.1777755618095398, 8.764204025268555, 103.56500244140625, 20.707815170288086, -1.518739104270935
706, 2866097595, -4.974235534667969, 0.6612617373466492, 8.433576583862305, 93.93050384521484, 34.65373992919922, 5.87943696975708
707, 2866114262, -5.168933868408203, 1.2282917499542236, 8.00253677368164, 91.50672912597656, 35.55107879638672, 7.794325828552246
708, 2866130929, -5.403406143188477, 1.6855170726776123, 7.661092758178711, 86.95738220214844, 33.86831283569336, 3.863032579421997
709, 2866147596, -5.502140522003174, 1.989836573600769, 7.458714962005615, 87.0791244506836, 33.44862365722656, -3.7969303131103516
710, 2866164263, -5.442083835601807, 1.991316318511963, 7.197403907775879, 76.14473724365234, 30.779972076416016, -11.462064743041992
711, 2866180930, -5.435305595397949, 1.9137004613876343, 7.049929141998291, 69.61182403564453, 26.07405662536621, -15.158414840698242
712, 2866197597, -5.688178062438965, 1.7699522972106934, 6.620482921600342, 80.05242156982422, 27.1451358795166, -16.412532806396484
713, 2866214264, -5.830418109893799, 1.8916089534759521, 5.833181858062744, 136.37025451660156, 38.86464309692383, -12.484464645385742
714, 2866230931, -5.371514797210693, 2.694361686706543, 5.882643699645996, 221.5176239013672, 43.963008880615234, -6.960338115692139
715, 2866247598, -5.8341498374938965, 3.8779451847076416, 6.2860894203186035, 270.32159423828125, 38.07647705078125, -3.952028274536133
716, 2866264265, -5.835590839385986, 4.843836784362793, 6.029479026794434, 306.423095703125, 39.083465576171875, -14.219891548156738
717, 2866280932, -6.718811511993408, 5.415447235107422, 6.434048652648926, 346.3843688964844, 49.03997802734375, -28.26351547241211
718, 2866297599, -6.76560640335083, 5.607261657714844, 6.466507911682129, 341.42999267578125, 69.49427795410156, -45.157615661621094
719, 2866314266, -6.847370624542236, 5.738462924957275, 6.345730781555176, 344.5462951660156, 95.62418365478516, -44.90043640136719
720, 2866330933, -6.511524200439453, 5.990244388580322, 4.759645462036133, 343.81072998046875, 117.4853744506836, -44.79479217529297
721, 2866347600, -6.808356761932373, 6.578805923461914, 4.073359966278076, 389.7762756347656, 132.7039794921875, -43.482627868652344
722, 2866364267, -6.962446689605713, 6.75429105758667, 2.3098456859588623, 407.1897277832031, 143.0202178955078, -45.76653289794922
723, 2866380934, -6.992453098297119, 6.630216598510742, 0.8303611278533936, 436.54229736328125, 135.6317901611328, -56.11222839355469
724, 2866397601, -6.692346572875977, 6.074360370635986, -1.5104271173477173, 422.8990478515625, 100.78287506103516, -67.68051147460938
725, 2866414268, -6.904427528381348, 5.776560306549072, -2.2910263538360596, 423.27911376953125, 59.27940368652344, -53.98387908935547
726, 2866430935, -7.324939727783203, 5.900094985961914, -1.776025414466858, 394.0639343261719, 34.14437484741211, -44.56650161743164
727, 2866447602, -7.526558876037598, 5.809916973114014, -2.454923391342163, 360.3412780761719, 26.565387725830078, -43.208106994628906
728, 2866464269, -7.499906539916992, 5.971663951873779, -3.1505792140960693, 428.732666015625, 34.5783576965332, -38.94944763183594
729, 2866480936, -7.7979655265808105, 5.231928825378418, -1.9355803728103638, 451.3158874511719, 46.846412658691406, -48.59526824951172
730, 2866497603, -7.622138977050781, 3.031379222869873, -2.485961675643921, 365.0046691894531, 58.18003845214844, -47.248939514160156
731, 2866514270, -7.3429179191589355, 1.786813497543335, -4.261477470397949, 218.8096160888672, 59.635284423828125, -30.795534133911133
732, 2866530937, -7.280962944030762, 2.421895980834961, -7.25238037109375, 190.60397338867188, 47.79012680053711, -2.234973907470703
733, 2866547604, -7.3532795906066895, 3.5915584564208984, -7.532191753387451, 198.7299346923828, 18.875232696533203, 0.1577131450176239
734, 2866564271, -7.581589698791504, 3.566016435623169, -6.57361364364624, 204.08335876464844, -6.339732646942139, -12.824339866638184
735, 2866580938, -7.5424065589904785, 2.642371654510498, -5.474432468414307, 192.74212646484375, -17.08835220336914, -23.01003074645996
736, 2866597605, -7.487298011779785, 1.9753984212875366, -4.626469612121582, 182.07723999023438, -6.174445629119873, -24.14889144897461
737, 2866614272, -7.5060272216796875, 1.45863938331604, -5.334860324859619, 164.17935180664062, 17.538619995117188, -21.281402587890625
738, 2866630939, -7.624103546142578, 1.1383981704711914, -6.444764614105225, 157.70594787597656, 28.275623321533203, -15.668001174926758
739, 2866647606, -7.351818561553955, 1.156248688697815, -7.897195816040039, 157.7007293701172, 20.477184295654297, -12.062101364135742
740, 2866664273, -7.247978687286377, 1.076574444770813, -7.699837684631348, 151.32765197753906, -2.1846463680267334, -13.172183990478516
741, 2866680940, -7.288137435913086, 1.0939065217971802, -7.138182640075684, 162.31968688964844, -15.94614028930664, -14.176790237426758
742, 2866697607, -7.555596828460693, 1.0665860176086426, -7.029322624206543, 185.1929931640625, -12.04969596862793, -22.32033348083496
743, 2866714274, -7.484800338745117, 0.8789243698120117, -7.611644744873047, 230.3955078125, -7.748936653137207, -32.302284240722656
744, 2866730941, -7.422573089599609, -0.23742076754570007, -7.675470352172852, 221.97198486328125, -18.676395416259766, -45.994686126708984
745, 2866747608, -7.291353702545166, -0.9702581167221069, -7.685544013977051, 287.46697998046875, -33.83509063720703, -43.407527923583984
746, 2866764275, -7.766329288482666, -0.9606165885925293, -6.332448482513428, 343.72674560546875, -44.69572067260742, -45.71274948120117
747, 2866780942, -7.471480846405029, -2.1383824348449707, -4.560501575469971, 302.7714538574219, -43.79734802246094, -52.22051239013672
748, 2866797609, -7.603863716125488, -3.1719236373901367, -3.7921383380889893, 269.8586120605469, -24.57476806640625, -40.248291015625
749, 2866814276, -7.64291524887085, -4.002007484436035, -4.458440780639648, 193.5688018798828, -13.268299102783203, -37.67327880859375
750, 2866830943, -7.440115928649902, -4.514463424682617, -5.5188307762146, 164.70851135253906, -11.907690048217773, -28.017494201660156
751, 2866847610, -7.4012861251831055, -4.16493034362793, -5.946558952331543, 174.706298828125, -22.69218635559082, -19.102630615234375
752, 2866864277, -7.666492938995361, -4.0361328125, -5.767289161682129, 184.04736328125, -45.91847610473633, -18.579565048217773
753, 2866880944, -8.011353492736816, -4.528913497924805, -3.7721164226531982, 184.92454528808594, -52.9176139831543, -20.84819793701172
754, 2866897611, -7.788340091705322, -5.519166946411133, -3.09079647064209, 172.6845245361328, -34.0772590637207, -17.87159538269043
755, 2866914278, -7.72408390045166, -5.939262390136719, -2.9310286045074463, 112.70854949951172, -22.74553680419922, -6.617773056030273
756, 2866930945, -7.698318004608154, -5.522155284881592, -3.636260986328125, 76.33514404296875, -24.319799423217773, 3.590604543685913
757, 2866947612, -7.8825860023498535, -4.786234378814697, -3.3639116287231445, 57.15772247314453, -34.80819320678711, 2.5774784088134766
758, 2866964279, -7.778028964996338, -4.711578845977783, -3.307797431945801, 76.04008483886719, -32.988494873046875, -5.239371299743652
759, 2866980946, -7.790317058563232, -5.418596267700195, -3.4553866386413574, 123.05583190917969, -26.31627082824707, -8.154273986816406
760, 2866997613, -7.743795394897461, -6.021784782409668, -2.455021619796753, 120.5474853515625, -34.17383575439453, -7.570586204528809
761, 2867014280, -7.537280559539795, -6.065316677093506, -1.5484265089035034, 82.00428009033203, -33.75194549560547, 2.893848180770874
762, 2867030947, -7.838317394256592, -4.981393814086914, -1.3328887224197388, 51.71211242675781, -26.09428596496582, 11.917473793029785
763, 2867047614, -7.942964553833008, -4.159278869628906, -1.898332118988037, 44.42037582397461, -22.81850242614746, 3.13665509223938
764, 2867064281, -8.132798194885254, -4.639477252960205, -2.0346274375915527, 72.1640396118164, -17.556148529052734, -10.017375946044922
765, 2867080948, -7.939064025878906, -5.909033298492432, -1.7056199312210083, 91.20409393310547, -15.90756893157959, -15.435564994812012
766, 2867097615, -7.704847812652588, -6.681548595428467, -1.0963530540466309, 76.0369873046875, -19.077075958251953, -7.165040016174316
767, 2867114282, -7.660650253295898, -6.274163722991943, -0.7993475198745728, 60.63657760620117, -12.741378784179688, 8.940754890441895
768, 2867130949, -8.078235626220703, -4.828250408172607, -1.4732376337051392, 74.75146484375, -5.601291179656982, 13.327435493469238
769, 2867147616, -8.11666488647461, -4.611868381500244, -1.625747561454773, 78.72118377685547, -10.716309547424316, -4.173028945922852
770, 2867164283, -7.846161365509033, -5.882112503051758, -1.1231040954589844, 79.84016418457031, -14.740702629089355, -12.569527626037598
771, 2867180950, -7.709630012512207, -6.8667311668396, -0.17172853648662567, 57.468353271484375, -16.03535270690918, -4.815196514129639
772, 2867197617, -7.64236307144165, -6.922067642211914, 0.2928330898284912, 16.817873001098633, -11.60654354095459, 10.29886531829834
773, 2867214284, -7.863689422607422, -5.759980201721191, 0.07472477108240128, 7.915488243103027, -0.46662598848342896, 24.081403732299805
774, 2867230951, -8.25861644744873, -4.460798263549805, -0.3429700434207916, 7.180970668792725, 5.214066505432129, 15.973244667053223
775, 2867247618, -8.337457656860352, -4.78904914855957, -0.5082381367683411, 5.144086837768555, 2.9575436115264893, -2.4661831855773926
776, 2867264285, -8.002325057983398, -5.871194362640381, -0.6666041016578674, 1.221565842628479, 3.2712738513946533, -6.978706359863281
777, 2867280952, -7.855696678161621, -6.264293193817139, -1.478516697883606, 8.667500495910645, 6.035691738128662, 3.7980761528015137
778, 2867297619, -7.763523101806641, -5.869716167449951, -1.8034498691558838, 14.921676635742188, -3.267198085784912, 10.571942329406738
779, 2867314286, -7.778193950653076, -5.455976963043213, -1.0374579429626465, 9.464424133300781, -12.330893516540527, 12.219368934631348
780, 2867330953, -7.935501575469971, -4.920514106750488, -0.36432087421417236, 4.476840496063232, -10.441218376159668, 9.874748229980469
781, 2867347620, -8.12710952758789, -4.635704517364502, -0.08923576772212982, -3.124993324279785, -7.084166526794434, 0.4207591116428375
782, 2867364287, -8.110542297363281, -5.355771064758301, 0.015488768927752972, -2.8001222610473633, -1.8906407356262207, -10.101922035217285
783, 2867380954, -8.008076667785645, -6.177912712097168, 0.04448176547884941, -12.979360580444336, 1.4802806377410889, -5.942470550537109
784, 2867397621, -8.137332916259766, -6.374610900878906, -0.4641205072402954, -25.754323959350586, 5.390366554260254, 1.087063193321228
785, 2867414288, -7.964060306549072, -6.7155609130859375, -1.167615532875061, -39.64256286621094, 5.219637393951416, 11.028926849365234
786, 2867430955, -7.97393798828125, -6.339277267456055, -1.315644383430481, -65.24168395996094, -5.879303455352783, 23.391754150390625
787, 2867447622, -8.118987083435059, -5.585243225097656, -0.9055867791175842, -88.33285522460938, -12.275592803955078, 26.562606811523438
788, 2867464289, -8.289767265319824, -4.855069637298584, -0.847660481929779, -109.32233428955078, -16.33496856689453, 19.453113555908203
789, 2867480956, -8.437833786010742, -4.638908386230469, 0.012486331164836884, -146.24000549316406, -21.968040466308594, 1.5536130666732788
790, 2867497623, -8.287787437438965, -5.250624179840088, 0.34620344638824463, -190.68272399902344, -17.05576515197754, -13.78190803527832
791, 2867514290, -8.019927978515625, -5.905699253082275, 0.1220705658197403, -241.00213623046875, -3.8340225219726562, -13.077149391174316
792, 2867530957, -7.700960159301758, -6.058542251586914, -0.9555670022964478, -299.90472412109375, 9.558473587036133, 2.038681983947754
793, 2867547624, -7.527215003967285, -5.2432332038879395, -2.436774969100952, -352.1630859375, -0.06233029440045357, 26.090068817138672
794, 2867564291, -7.897485256195068, -4.02775764465332, -2.7585625648498535, -410.3582763671875, -24.23603630065918, 34.864990234375
795, 2867580958, -8.237265586853027, -3.1824350357055664, -2.168898105621338, -538.836181640625, -59.27275848388672, 21.825366973876953
796, 2867597625, -8.541752815246582, -2.499959707260132, -2.6718897819519043, -683.9213256835938, -91.48635864257812, -0.5083429217338562
797, 2867614292, -8.485823631286621, -2.203791618347168, -3.7822766304016113, -775.5774536132812, -105.82006072998047, -11.780618667602539
798, 2867630959, -8.119266510009766, -1.9201197624206543, -5.521759986877441, -760.3546752929688, -114.34894561767578, 5.383882999420166
799, 2867647626, -8.23858642578125, -0.844724714756012, -5.8020548820495605, -674.1619873046875, -125.81031036376953, 40.58155059814453
800, 2867664293, -8.708379745483398, 0.6546825170516968, -4.118178367614746, -640.5128784179688, -141.32711791992188, 54.472835540771484
801, 2867680960, -8.91320514678955, 1.4655647277832031, -3.524169445037842, -661.9822998046875, -156.37466430664062, 39.12472152709961
802, 2867697627, -9.026142120361328, 1.3852006196975708, -3.390994071960449, -602.8988647460938, -158.05613708496094, 32.82060623168945
803, 2867714294, -8.924188613891602, 1.3364235162734985, -2.6036133766174316, -520.3082885742188, -150.08255004882812, 42.90391159057617
804, 2867730961, -9.036458969116211, 1.716766119003296, -1.8038815259933472, -436.8174133300781, -139.6533660888672, 66.41252899169922
805, 2867747628, -8.892020225524902, 2.1483256816864014, -0.5257154107093811, -371.11419677734375, -127.89332580566406, 82.50664520263672
806, 2867764295, -8.81534481048584, 2.4956178665161133, 0.4867628812789917, -326.32464599609375, -110.15746307373047, 86.49303436279297
807, 2867780962, -8.605878829956055, 2.837153911590576, 1.0346440076828003, -270.7337341308594, -86.41273498535156, 89.63385772705078
808, 2867797629, -8.735061645507812, 3.315854549407959, 1.6332452297210693, -216.44888305664062, -58.21291732788086, 92.90605926513672
809, 2867814296, -9.297565460205078, 3.794351577758789, 2.2026257514953613, -208.91941833496094, -30.343013763427734, 92.2082290649414
810, 2867830963, -9.483481407165527, 3.9262847900390625, 2.089238166809082, -248.12567138671875, -5.030436992645264, 83.66081237792969
811, 2867847630, -8.583233833312988, 4.085763454437256, 1.5905662775039673, -287.5120544433594, -0.3503774106502533, 84.66796112060547
812, 2867864297, -8.195975303649902, 4.647067070007324, 1.2585855722427368, -267.1614990234375, -11.233783721923828, 93.63011932373047
813, 2867880964, -8.43216323852539, 4.9611077308654785, 1.9948190450668335, -240.91075134277344, -20.003646850585938, 86.67650604248047
814, 2867897631, -8.474616050720215, 4.784901142120361, 2.7904508113861084, -280.9480285644531, -26.648681640625, 65.05929565429688
815, 2867914298, -8.457589149475098, 4.594937801361084, 2.991468667984009, -341.4977722167969, -32.72483825683594, 50.77494812011719
816, 2867930965, -8.291645050048828, 4.795916557312012, 2.0151755809783936, -315.8205871582031, -36.53187561035156, 48.12187957763672
817, 2867947632, -8.440932273864746, 4.7603678703308105, 2.0627989768981934, -209.95236206054688, -29.73200225830078, 42.54226303100586
818, 2867964299, -8.140612602233887, 4.411291599273682, 2.6632683277130127, -117.02195739746094, -30.552515029907227, 29.272422790527344
819, 2867980966, -8.165154457092285, 3.613569974899292, 3.6434781551361084, -129.3554229736328, -41.14350509643555, 9.218976020812988
820, 2867997633, -8.043440818786621, 2.58254075050354, 4.057460784912109, -219.3773956298828, -54.179813385009766, -4.0151286125183105
821, 2868014300, -7.728761196136475, 1.9844332933425903, 3.9387481212615967, -339.777587890625, -73.2541275024414, -3.3831241130828857
822, 2868030967, -7.135146141052246, 1.8327057361602783, 3.2250990867614746, -386.0829772949219, -98.47159576416016, 2.6135928630828857
823, 2868047634, -7.057635307312012, 1.5198498964309692, 4.181350231170654, -288.3082580566406, -118.29042053222656, 1.831454873085022
824, 2868064301, -7.137846946716309, 0.7321851253509521, 6.215014457702637, -224.90394592285156, -104.67656707763672, -3.5846097469329834
825, 2868080968, -6.926452159881592, 0.0047989338636398315, 6.622683525085449, -235.9857177734375, -77.88214111328125, -1.0633697509765625
826, 2868097635, -7.01226806640625, 0.024220377206802368, 7.029225826263428, -259.2546081542969, -65.15239715576172, 1.243079662322998
827, 2868114302, -6.87036657333374, -0.03288128972053528, 6.5525641441345215, -332.39642333984375, -79.95873260498047, -14.857298851013184
828, 2868130969, -7.038433074951172, -0.4480970799922943, 7.407844543457031, -374.9943542480469, -90.42171478271484, -25.435564041137695
829, 2868147636, -6.897726058959961, -1.2349469661712646, 7.533884525299072, -403.79144287109375, -82.39408874511719, -37.57822036743164
830, 2868164303, -6.670716762542725, -2.4446969032287598, 7.545161247253418, -381.6690979003906, -66.94210052490234, -50.186309814453125
831, 2868180970, -6.2692179679870605, -3.7729575634002686, 6.778139114379883, -302.55548095703125, -41.420291900634766, -52.875179290771484
832, 2868197637, -6.011148452758789, -4.6137895584106445, 7.109921455383301, -252.10520935058594, -14.445951461791992, -46.93412399291992
833, 2868214304, -5.87855339050293, -4.851301670074463, 5.927217483520508, -288.03790283203125, -0.8559505939483643, -42.89280700683594
834, 2868230971, -5.7126078605651855, -4.889944553375244, 5.019143581390381, -341.5844421386719, -6.718129634857178, -50.97221755981445
835, 2868247638, -5.889533042907715, -5.588155746459961, 4.19745397567749, -365.33349609375, -19.638397216796875, -56.915672302246094
836, 2868264305, -5.790531158447266, -6.236819267272949, 4.293331146240234, -380.5045471191406, -20.733421325683594, -61.59465408325195
837, 2868280972, -5.485830783843994, -6.830661296844482, 3.6526942253112793, -372.8997497558594, -1.4801230430603027, -62.91960144042969
838, 2868297639, -5.259171485900879, -7.500987529754639, 2.3749845027923584, -340.53167724609375, 24.302024841308594, -58.84090042114258
839, 2868314306, -4.999395370483398, -8.167076110839844, 0.4515753388404846, -287.5580749511719, 34.384666442871094, -53.787811279296875
840, 2868330973, -4.843206405639648, -8.838436126708984, -0.7497705221176147, -212.06544494628906, 27.012826919555664, -35.04995346069336
841, 2868347640, -4.803576469421387, -9.084688186645508, -0.9865385293960571, -163.24368286132812, 10.873577117919922, -12.512900352478027
842, 2868364307, -4.94599723815918, -8.704263687133789, -0.4626096487045288, -156.5103302001953, -4.167303085327148, -2.6841483116149902
843, 2868380974, -5.0182414054870605, -8.242554664611816, 0.0021588951349258423, -192.41929626464844, -10.19387149810791, -5.992210388183594
844, 2868397641, -5.12040901184082, -8.047971725463867, 0.056818604469299316, -230.68751525878906, -1.7439894676208496, -13.189987182617188
845, 2868414308, -5.426127910614014, -8.073640823364258, -0.5043832063674927, -263.5613098144531, 12.564736366271973, -24.45030975341797
846, 2868430975, -5.251274585723877, -8.395774841308594, -1.6663291454315186, -258.950439453125, 29.472795486450195, -29.607200622558594
847, 2868447642, -4.837526798248291, -8.311966896057129, -2.839597463607788, -229.6649169921875, 41.18250274658203, -21.638351440429688
848, 2868464309, -4.612237453460693, -8.145686149597168, -3.6362855434417725, -232.71408081054688, 42.1693000793457, -18.013669967651367
849, 2868480976, -4.32133674621582, -7.707876205444336, -4.405787944793701, -217.9359130859375, 35.570430755615234, -3.6748886108398438
850, 2868497643, -4.5339155197143555, -6.808527946472168, -4.527184009552002, -233.6604766845703, 27.15320587158203, 2.4017553329467773
851, 2868514310, -4.906657695770264, -6.232873439788818, -4.712014675140381, -244.27772521972656, 27.029701232910156, -7.3171610832214355
852, 2868530977, -4.906075477600098, -6.30111837387085, -5.069087505340576, -269.9640808105469, 32.59163284301758, -22.689241409301758
853, 2868547644, -4.4411702156066895, -6.562440872192383, -6.095060348510742, -258.350830078125, 41.99776077270508, -23.08688735961914
854, 2868564311, -4.155179023742676, -6.32927131652832, -6.489725589752197, -249.91539001464844, 53.546478271484375, -11.087504386901855
855, 2868580978, -3.762094497680664, -5.692519187927246, -7.2148237228393555, -248.58082580566406, 56.03350830078125, 1.2118287086486816
856, 2868597645, -3.666607141494751, -5.058810234069824, -7.188623905181885, -279.1610412597656, 49.31110763549805, 6.946922779083252
857, 2868614312, -3.710726737976074, -4.8395209312438965, -8.45705509185791, -299.9549865722656, 44.018898010253906, 18.8746337890625
858, 2868630979, -3.8287460803985596, -4.317455291748047, -8.620327949523926, -248.58213806152344, 43.09988021850586, 44.91214370727539
859, 2868647646, -3.7638323307037354, -3.2274343967437744, -8.670724868774414, -230.69198608398438, 44.015018463134766, 61.02268600463867
860, 2868664313, -3.8347673416137695, -1.8963724374771118, -8.768326759338379, -212.75697326660156, 51.80709457397461, 64.21495819091797
861, 2868680980, -3.817216157913208, -0.6803882718086243, -9.411949157714844, -199.65147399902344, 56.152381896972656, 56.98118591308594
862, 2868697647, -3.453247308731079, 0.0012894272804260254, -9.36135482788086, -226.0438995361328, 62.4658088684082, 36.06123733520508
863, 2868714314, -3.366046667098999, 0.6547704935073853, -10.484320640563965, -233.20101928710938, 61.665897369384766, 17.463966369628906
864, 2868730981, -3.3215079307556152, 0.7255548238754272, -11.41677474975586, -203.9652862548828, 48.83387756347656, 5.188240051269531
865, 2868747648, -3.2492728233337402, 0.6011930704116821, -11.503852844238281, -150.8598175048828, 28.88852882385254, 2.5629751682281494
866, 2868764315, -2.7912204265594482, 0.5755744576454163, -10.650405883789062, -134.71109008789062, 7.74861478805542, 4.241166114807129
867, 2868780982, -2.927537679672241, 1.0535306930541992, -10.178109169006348, -148.4100341796875, -3.4375696182250977, 9.157389640808105
868, 2868797649, -3.0949864387512207, 1.3989362716674805, -9.373690605163574, -161.81051635742188, 2.314944267272949, 15.093017578125
869, 2868814316, -3.285403251647949, 2.122413158416748, -10.050264358520508, -152.3272247314453, 9.581191062927246, 14.2316255569458
870, 2868830983, -3.387474298477173, 2.7270779609680176, -10.264060020446777, -123.92086029052734, 3.0480966567993164, 11.781262397766113
871, 2868847650, -3.0622048377990723, 2.8552587032318115, -9.792584419250488, -91.31532287597656, -8.239018440246582, 7.634073734283447
872, 2868864317, -3.12772536277771, 3.0453848838806152, -9.025751113891602, -97.10211181640625, -14.117493629455566, 3.8531322479248047
873, 2868880984, -3.1273744106292725, 2.7294657230377197, -8.743358612060547, -117.26921081542969, -12.891963005065918, 0.5568153858184814
874, 2868897651, -2.0139286518096924, 2.05129337310791, -11.66402816772461, -61.931827545166016, 5.462490081787109, 7.866288185119629
875, 2868914318, -2.590205430984497, 1.1295950412750244, -9.074161529541016, 169.60391235351562, 41.996055603027344, 45.68522262573242
876, 2868930985, -1.6389045715332031, 0.11737021803855896, -10.856307029724121, 219.5474395751953, 67.32038879394531, 62.72377395629883
877, 2868947652, -0.0871691107749939, -1.7039821147918701, -13.34433650970459, 539.5201416015625, 134.7507781982422, 82.40618896484375
878, 2868964319, -0.717902421951294, 2.030683994293213, -15.821124076843262, 1483.794189453125, 265.26806640625, 135.51925659179688
879, 2868980986, -8.05508804321289, 9.240368843078613, -6.78478479385376, 1998.830078125, 435.92059326171875, 180.45472717285156
880, 2868997653, -4.154026031494141, 5.80742883682251, 1.4495398998260498, 1969.9296875, 376.5314636230469, -44.43203353881836
881, 2869014320, -1.394101858139038, -1.1273193359375, 11.890840530395508, 1334.6732177734375, 249.8544921875, -260.3177185058594
