sep=,
DeviceTag:,15,,,,,,,,,,,,,,,,,
FirmwareVersion:,2.2.1,,,,,,,,,,,,,,,,,
AppVersion:,2023.0.0,,,,,,,,,,,,,,,,,
SyncStatus:,Un-synced,,,,,,,,,,,,,,,,,
OutputRate:,60Hz,,,,,,,,,,,,,,,,,
FilterProfile:,General,,,,,,,,,,,,,,,,,
Measurement Mode:,Inertial Mode - Rate quantities,,,,,,,,,,,,,,,,,
StartTime:,2023-07-20 16:10:25.154 +0900,,,,,,,,,,,,,,,,,
© Movella Technologies B. V. 2005-2023,,,,,,,,,,,,,,,,,,,

PacketCounter,SampleTimeFine,Acc_X,Acc_Y,Acc_Z,Gyr_X,Gyr_Y,Gyr_Z
1, 673445467, 7.8471598625183105, -5.9513444900512695, -1.494242787361145, 0.19874173402786255, -0.05324239656329155, 0.3928219676017761
2, 673462134, 7.814263820648193, -5.930259704589844, -1.4845585823059082, 0.3470456600189209, 0.050822000950574875, 0.3461620509624481
3, 673478801, 7.808859825134277, -5.938199043273926, -1.5034375190734863, 0.014285482466220856, -0.007120330352336168, 0.2696568965911865
4, 673495468, 7.826486587524414, -5.9620561599731445, -1.4666597843170166, -0.031401168555021286, -0.09137330204248428, 0.27183398604393005
5, 673512135, 7.829644680023193, -5.987082481384277, -1.4774314165115356, -0.19046883285045624, 0.022904153913259506, 0.2750355303287506
6, 673528802, 7.804006576538086, -5.967144966125488, -1.4913749694824219, -0.014637659303843975, 0.016654659062623978, 0.36925190687179565
7, 673545469, 7.785321235656738, -5.95035457611084, -1.483435869216919, 0.46585017442703247, -0.03899533301591873, 0.40238186717033386
8, 673562136, 7.8048505783081055, -5.963239669799805, -1.4636915922164917, 0.030459903180599213, 0.04895227029919624, 0.2793384790420532
9, 673578803, 7.831014156341553, -5.9409637451171875, -1.4906275272369385, -0.16928713023662567, 0.0745009332895279, 0.349197119474411
10, 673595470, 7.843731880187988, -5.940415859222412, -1.4945470094680786, 0.35649675130844116, -0.005698824767023325, 0.3322286903858185
11, 673612137, 7.855615139007568, -5.9388251304626465, -1.4776102304458618, 0.17846286296844482, 0.11841389536857605, 0.3529621958732605
12, 673628804, 7.854531288146973, -5.961551666259766, -1.4685587882995605, -0.22706937789916992, 0.06565175205469131, 0.3229825496673584
13, 673645471, 7.815772533416748, -5.9595417976379395, -1.4848519563674927, 0.17933371663093567, 0.03170211613178253, 0.4163920283317566
14, 673662138, 7.811777591705322, -5.9627532958984375, -1.4868475198745728, 0.16596387326717377, -0.008452191017568111, 0.5377834439277649
15, 673678805, 7.80382776260376, -5.955601215362549, -1.4862323999404907, -0.023141076788306236, 0.08632120490074158, 0.4153291881084442
16, 673695472, 7.817785739898682, -5.955597400665283, -1.488700032234192, 0.016129596158862114, -0.004648704547435045, 0.4248698353767395
17, 673712139, 7.818376064300537, -5.948513031005859, -1.4817085266113281, 0.45756447315216064, -0.011128717102110386, 0.45532336831092834
18, 673728806, 7.820128440856934, -5.957045078277588, -1.4682221412658691, 0.47580069303512573, 0.04110197722911835, 0.3645135164260864
19, 673745473, 7.8337178230285645, -5.933825492858887, -1.4631551504135132, -0.0599721297621727, 0.05302468314766884, 0.3961836099624634
20, 673762140, 7.838130950927734, -5.9556403160095215, -1.481522560119629, -0.1560453623533249, 0.027604082599282265, 0.3017239570617676
21, 673778807, 7.819313049316406, -5.942694664001465, -1.4832749366760254, 0.31641289591789246, 0.08395202457904816, 0.42308974266052246
22, 673795474, 7.815032005310059, -5.965045928955078, -1.453102469444275, 0.24317339062690735, -0.006275111343711615, 0.44094187021255493
23, 673812141, 7.8169169425964355, -5.9690046310424805, -1.4812185764312744, -0.1437128633260727, 0.02668202854692936, 0.3787798285484314
24, 673828808, 7.80939245223999, -5.94499397277832, -1.4786293506622314, 0.19121798872947693, -0.01260144729167223, 0.29781803488731384
25, 673845475, 7.830023765563965, -5.950644493103027, -1.4801313877105713, 0.3582512438297272, -0.015354812145233154, 0.35046496987342834
26, 673862142, 7.8232574462890625, -5.950994968414307, -1.475664734840393, -0.242462620139122, 0.04021833837032318, 0.2977539896965027
27, 673878809, 7.8348798751831055, -5.948005199432373, -1.5030763149261475, 0.02243032306432724, -0.07714544981718063, 0.30967676639556885
28, 673895476, 7.841142177581787, -5.949524879455566, -1.4653831720352173, 0.38158437609672546, -5.634793778881431E-4, 0.32690125703811646
29, 673912143, 7.824098110198975, -5.932284355163574, -1.468076229095459, 0.11049958318471909, -0.08580253273248672, 0.3146840035915375
30, 673928810, 7.830906867980957, -5.954897880554199, -1.478671908378601, -0.2537706196308136, 0.08379834145307541, 0.27855733036994934
31, 673945477, 7.825510501861572, -5.963039398193359, -1.4851452112197876, 0.06483214348554611, 0.051769670099020004, 0.34831348061561584
32, 673962144, 7.8284502029418945, -5.977619647979736, -1.4790513515472412, 0.19463729858398438, -0.013216152787208557, 0.3830827474594116
33, 673978811, 7.822295665740967, -5.96409797668457, -1.4797523021697998, 0.031177055090665817, 0.06608716398477554, 0.342256098985672
34, 673995478, 7.809034824371338, -5.970853805541992, -1.500773310661316, 0.013196942396461964, 0.15415643155574799, 0.31312164664268494
35, 674012145, 7.8175177574157715, -5.961312294006348, -1.4872409105300903, 0.378280371427536, -0.01699402555823326, 0.2999183237552643
36, 674028812, 7.823357582092285, -5.945358753204346, -1.4780964851379395, -0.044835034757852554, 0.0220333244651556, 0.33681342005729675
37, 674045479, 7.845575332641602, -5.944174289703369, -1.4553730487823486, 0.1382637470960617, -0.08977250754833221, 0.32352039217948914
38, 674062146, 7.82283878326416, -5.950851917266846, -1.481987476348877, 0.27264076471328735, -0.128114715218544, 0.44602593779563904
39, 674078813, 7.828932762145996, -5.95339822769165, -1.4734224081039429, -0.3748290240764618, -0.01794169284403324, 0.29608917236328125
40, 674095480, 7.815042972564697, -5.972283840179443, -1.4844192266464233, -0.05502888560295105, 0.051833704113960266, 0.3809184730052948
41, 674112147, 7.8301191329956055, -5.958325386047363, -1.5015562772750854, 0.19336947798728943, -0.005442698020488024, 0.342140793800354
42, 674128814, 7.818000316619873, -5.974007606506348, -1.4662163257598877, 0.14720258116722107, 0.10527459532022476, 0.32446807622909546
43, 674145481, 7.822520732879639, -5.963343620300293, -1.4672319889068604, 0.09733466804027557, -0.0035345524083822966, 0.3328562378883362
44, 674162148, 7.828807830810547, -5.94744348526001, -1.4636200666427612, -0.09045124799013138, 0.01696201041340828, 0.3107652962207794
45, 674178815, 7.808691501617432, -5.9367756843566895, -1.4827027320861816, -0.2629143297672272, 0.01967695727944374, 0.2889048457145691
46, 674195482, 7.853176116943359, -5.945748805999756, -1.4549155235290527, 0.24592675268650055, -0.2383902221918106, 0.34650781750679016
47, 674212149, 7.856157302856445, -5.965598106384277, -1.5124260187149048, 0.7315434813499451, -0.044681355357170105, 0.46122705936431885
48, 674228816, 7.853372573852539, -5.959434509277344, -1.4559919834136963, 0.26990023255348206, 0.16901180148124695, 0.2960379719734192
49, 674245483, 7.798094272613525, -5.9630818367004395, -1.4329935312271118, -0.2498902976512909, -0.1514606922864914, 0.4551953077316284
50, 674262150, 7.809642791748047, -5.956674098968506, -1.4827561378479004, -0.6405607461929321, 0.16677069664001465, 0.35567715764045715
51, 674278817, 7.823890209197998, -5.9708428382873535, -1.4983662366867065, -0.28561997413635254, 0.15484796464443207, 0.33130666613578796
52, 674295484, 7.834908485412598, -5.95958137512207, -1.4927446842193604, 0.6286060810089111, -0.09347353130578995, 0.4528260827064514
53, 674312151, 7.812479019165039, -5.949747085571289, -1.492844581604004, 1.0882898569107056, -0.1316876858472824, 0.49909543991088867
54, 674328818, 7.8458733558654785, -5.963633060455322, -1.4429638385772705, 7.235587108880281E-4, 0.16693715751171112, 0.32171469926834106
55, 674345485, 7.850518703460693, -5.972187519073486, -1.475589632987976, -0.36644089221954346, 0.15934300422668457, 0.43174684047698975
56, 674362152, 7.853261947631836, -5.957239151000977, -1.4947795867919922, 0.052217885851860046, 0.11167777329683304, 0.5762024521827698
57, 674378819, 7.838162899017334, -5.954953670501709, -1.4908850193023682, 0.2997646629810333, 0.19459889829158783, 0.5335189700126648
58, 674395486, 7.839969158172607, -5.995983600616455, -1.4948081970214844, 0.33016690611839294, 0.26621201634407043, 0.7035616636276245
59, 674412153, 7.686825752258301, -5.958474159240723, -1.4653011560440063, 1.15494704246521, 0.4176470637321472, 0.7760327458381653
60, 674428820, 7.681948184967041, -5.972371578216553, -1.2857147455215454, 0.12728871405124664, -1.1141268014907837, 0.03151002153754234
61, 674445487, 8.118349075317383, -6.0429182052612305, -1.638829231262207, -6.41118049621582, 1.3786487579345703, 0.060836583375930786
62, 674462154, 7.582367897033691, -5.874955177307129, -1.6217857599258423, 3.7255024909973145, 0.8357744812965393, 1.0199042558670044
63, 674478821, 7.836780548095703, -5.913944721221924, -1.2812567949295044, 3.201043128967285, -2.6040046215057373, -0.5621987581253052
64, 674495488, 7.964412689208984, -5.951846599578857, -1.561240792274475, -3.3888678550720215, 1.2126269340515137, 0.7143958806991577
65, 674512155, 7.645501613616943, -5.910454750061035, -1.427223563194275, 3.4385499954223633, -0.09285884350538254, 0.31326255202293396
66, 674528822, 8.061657905578613, -5.994072437286377, -1.3774011135101318, -0.5308104157447815, -0.3255886435508728, 0.02623380906879902
67, 674545489, 7.772019386291504, -5.907390594482422, -1.550441026687622, -5.0315775871276855, 1.3950151205062866, 0.9459860324859619
68, 674562156, 7.6418890953063965, -5.919055461883545, -1.5702801942825317, 3.342233419418335, -1.186662197113037, 0.03700394928455353
69, 674578823, 8.001738548278809, -6.074016571044922, -1.4078919887542725, -0.2886295020580292, 0.3118410110473633, 0.253482460975647
70, 674595490, 7.691376209259033, -5.977677822113037, -1.5004620552062988, -0.4943763017654419, 0.5189964771270752, 0.700321614742279
71, 674612157, 7.740936279296875, -5.9495649337768555, -1.4071534872055054, 2.464524269104004, -0.953740119934082, 0.02504281885921955
72, 674628824, 7.9040374755859375, -5.986713886260986, -1.4769043922424316, -3.2268030643463135, 0.566469669342041, 0.26550763845443726
73, 674645491, 7.71896505355835, -5.901549816131592, -1.588501214981079, 0.3698153495788574, 0.20521534979343414, 0.2879059612751007
74, 674662158, 7.963890075683594, -5.960395336151123, -1.4240658283233643, 1.6748337745666504, -0.4977572560310364, 0.08470761030912399
75, 674678825, 7.820466995239258, -5.941676139831543, -1.4895529747009277, -0.467559814453125, 0.44930437207221985, 0.7254220843315125
76, 674695492, 7.729482173919678, -5.923666954040527, -1.4020113945007324, 1.1813665628433228, -0.406281441450119, 0.15583407878875732
77, 674712159, 7.958895206451416, -6.003769397735596, -1.4445894956588745, -1.9632644653320312, 0.1684483140707016, 0.18145956099033356
78, 674728826, 7.789630889892578, -5.948551654815674, -1.5659208297729492, -0.49444034695625305, 0.38883277773857117, 0.5601176619529724
79, 674745493, 7.78249454498291, -5.918816566467285, -1.4634119272232056, 2.2790374755859375, -0.5105763673782349, 0.14512796700000763
80, 674762160, 7.861483573913574, -5.966590881347656, -1.4548261165618896, -0.5229600667953491, 0.14556336402893066, 0.5076501369476318
81, 674778827, 7.753246307373047, -5.976102828979492, -1.4897160530090332, -0.5829834342002869, 0.24346791207790375, 0.3802909553050995
82, 674795494, 7.862724781036377, -5.968479156494141, -1.4626542329788208, 0.5825160145759583, -0.318468302488327, 0.16683471202850342
83, 674812161, 7.80115270614624, -5.94373893737793, -1.5172131061553955, -0.6863179206848145, 0.20296142995357513, 0.34109073877334595
84, 674828828, 7.77837610244751, -5.916226863861084, -1.5168554782867432, 0.6182457208633423, -0.10145189613103867, 0.20918531715869904
85, 674845495, 7.905267238616943, -5.970907211303711, -1.4887930154800415, 0.15104450285434723, -0.022116567939519882, 0.2624341547489166
86, 674862162, 7.8023152351379395, -5.958970069885254, -1.4901769161224365, -0.02716227062046528, 0.04705693572759628, 0.5368742346763611
87, 674878829, 7.771243095397949, -5.953440189361572, -1.4143729209899902, 0.8959385752677917, -0.16479210555553436, 0.33913132548332214
88, 674895496, 7.840607643127441, -5.977846622467041, -1.4534817934036255, -1.1097214221954346, 0.033687103539705276, 0.25641515851020813
89, 674912163, 7.7959747314453125, -5.963204383850098, -1.532189965248108, -0.4770365357398987, 0.07978997379541397, 0.2874065339565277
90, 674928830, 7.862876892089844, -5.949779510498047, -1.5094739198684692, 0.9197840094566345, -0.13479962944984436, 0.3291808068752289
91, 674945497, 7.812017917633057, -5.947200298309326, -1.4688340425491333, 0.420758992433548, 0.10181687772274017, 0.5125933289527893
92, 674962164, 7.777846813201904, -5.963876247406006, -1.4500197172164917, 0.08546317368745804, 0.0043349489569664, 0.24220010638237
93, 674978831, 7.847700595855713, -5.978825092315674, -1.460919976234436, -0.5249322056770325, -0.07372613996267319, 0.2232338786125183
94, 674995498, 7.82220983505249, -5.9673848152160645, -1.5136905908584595, -0.08759543299674988, -0.0050841206684708595, 0.4054810702800751
95, 675012165, 7.807010650634766, -5.93657922744751, -1.499782681465149, 0.38533666729927063, -0.04719139635562897, 0.2094414234161377
96, 675028832, 7.8170061111450195, -5.961183547973633, -1.4925265312194824, -0.213673934340477, 0.07622980326414108, 0.34527838230133057
97, 675045499, 7.806973934173584, -5.974682807922363, -1.4881631135940552, 0.2626774311065674, -0.08365108072757721, 0.306372731924057
98, 675062166, 7.845086574554443, -5.951946258544922, -1.43930184841156, 0.7272277474403381, -0.1286141723394394, 0.2951159179210663
99, 675078833, 7.827487945556641, -5.942201137542725, -1.4525481462478638, -0.12662917375564575, 0.022494353353977203, 0.21228444576263428
100, 675095500, 7.813340663909912, -5.927552700042725, -1.4854778051376343, -0.2569594085216522, 0.004386174958199263, 0.2675182521343231
101, 675112167, 7.85858678817749, -5.955661773681641, -1.5284316539764404, -0.12053336203098297, -0.03391121327877045, 0.33129385113716125
102, 675128834, 7.818608283996582, -5.954138278961182, -1.486951231956482, 0.39505666494369507, 0.026400288566946983, 0.41707077622413635
103, 675145501, 7.800022602081299, -5.967588901519775, -1.4406219720840454, 0.4632504880428314, -0.10163118690252304, 0.35059303045272827
104, 675162168, 7.81550407409668, -5.978968143463135, -1.4611238241195679, -0.5220893025398254, 0.0971553698182106, 0.2614608108997345
105, 675178835, 7.796175003051758, -5.9723734855651855, -1.4756933450698853, -0.24722659587860107, -0.03111942857503891, 0.31641286611557007
106, 675195502, 7.8143768310546875, -5.969150543212891, -1.488571047782898, 0.24020227789878845, 0.07811232656240463, 0.35462701320648193
107, 675212169, 7.7997260093688965, -5.959259510040283, -1.4725605249404907, 0.28315478563308716, -0.030684011057019234, 0.33147314190864563
108, 675228836, 7.8092851638793945, -5.948714733123779, -1.4821057319641113, 0.2527781128883362, 0.04863210767507553, 0.27938970923423767
109, 675245503, 7.840155124664307, -5.9555583000183105, -1.4561707973480225, 0.15963755548000336, -0.09513837099075317, 0.21022264659404755
110, 675262170, 7.838627815246582, -5.925807476043701, -1.4630872011184692, 0.08107059448957443, 0.013926905579864979, 0.29630687832832336
111, 675278837, 7.840834617614746, -5.931340217590332, -1.4943647384643555, -0.10752212256193161, 0.021956484764814377, 0.3371591567993164
112, 675295504, 7.824430465698242, -5.938195705413818, -1.480463981628418, -0.2687924802303314, 0.09346715360879898, 0.3479933738708496
113, 675312171, 7.821115970611572, -5.966798305511475, -1.4894942045211792, 0.16551566123962402, 0.027066219598054886, 0.3504009246826172
114, 675328838, 7.812707424163818, -5.970951557159424, -1.4802639484405518, 0.26375317573547363, 0.06213000416755676, 0.3825320601463318
115, 675345505, 7.783840656280518, -5.9862775802612305, -1.4899015426635742, -0.20852579176425934, 0.03528789430856705, 0.269439160823822
116, 675362172, 7.822377681732178, -5.978837013244629, -1.4944466352462769, -0.22343237698078156, 0.031676504760980606, 0.30203133821487427
117, 675378839, 7.828832626342773, -5.954914569854736, -1.5041313171386719, 0.0878707617521286, 0.05369061976671219, 0.3457137942314148
118, 675395506, 7.8286895751953125, -5.948573589324951, -1.491868495941162, 0.5544829368591309, 0.04627573862671852, 0.3117641508579254
119, 675412173, 7.826292514801025, -5.949849605560303, -1.4576045274734497, 0.25601813197135925, -0.04269636794924736, 0.3191918432712555
120, 675428840, 7.850461483001709, -5.933843612670898, -1.4477131366729736, -0.11147928237915039, 3.7778730620630085E-4, 0.34078338742256165
121, 675445507, 7.842082500457764, -5.940033912658691, -1.4686768054962158, -0.1115817204117775, 0.0303446426987648, 0.3068465292453766
122, 675462174, 7.84201717376709, -5.940408706665039, -1.513293743133545, -0.031644489616155624, 0.023249926045536995, 0.29590991139411926
123, 675478841, 7.828549385070801, -5.958489894866943, -1.4842722415924072, 0.10384028404951096, -0.08913219720125198, 0.41330572962760925
124, 675495508, 7.819974899291992, -5.967069625854492, -1.4713374376296997, 0.2570810616016388, 0.08259454369544983, 0.3850933313369751
125, 675512175, 7.806077480316162, -5.976511001586914, -1.4714269638061523, 0.010289901867508888, 0.057033080607652664, 0.31141841411590576
126, 675528842, 7.821151256561279, -5.9749627113342285, -1.4798238277435303, -0.005314634647220373, 0.04933646321296692, 0.3730938136577606
127, 675545509, 7.810679912567139, -5.969491004943848, -1.5101858377456665, -0.1329939365386963, 0.03440425544977188, 0.2572091221809387
128, 675562176, 7.832241058349609, -5.964067459106445, -1.5022932291030884, 0.1360226422548294, 0.08091692626476288, 0.3032095432281494
129, 675578843, 7.835834980010986, -5.950408458709717, -1.5034732818603516, 0.3114311993122101, -0.09798137843608856, 0.357867032289505
130, 675595510, 7.81837272644043, -5.952622413635254, -1.4708192348480225, 0.18033258616924286, 0.05270453169941902, 0.35933974385261536
131, 675612177, 7.834400653839111, -5.952783107757568, -1.4547903537750244, -0.010731721296906471, 0.038399841636419296, 0.3322671353816986
132, 675628844, 7.8197340965271, -5.966175079345703, -1.481136679649353, -0.16184665262699127, 0.06761112809181213, 0.3234051465988159
133, 675645511, 7.830324172973633, -5.956652641296387, -1.4912784099578857, -0.05687299743294716, 0.031714923679828644, 0.33697983622550964
134, 675662178, 7.821791172027588, -5.945484161376953, -1.5132042169570923, 0.18560883402824402, 0.001453520730137825, 0.34997832775115967
135, 675678845, 7.8103437423706055, -5.968689918518066, -1.4483853578567505, 0.2471817433834076, -0.007043491117656231, 0.3286941349506378
136, 675695512, 7.812482833862305, -5.950977325439453, -1.4452670812606812, 0.09743712097406387, 0.05174405872821808, 0.2730890214443207
137, 675712179, 7.815568447113037, -5.956595420837402, -1.4655762910842896, 0.005052104592323303, -0.013318602927029133, 0.27315303683280945
138, 675728846, 7.8331804275512695, -5.958278656005859, -1.4726676940917969, 0.020688658580183983, -0.07521169632673264, 0.3590836524963379
139, 675745513, 7.817020416259766, -5.955618858337402, -1.4972327947616577, 0.028410885483026505, 0.0814419835805893, 0.3413596451282501
140, 675762180, 7.8200459480285645, -5.936672210693359, -1.482759952545166, 0.09386412799358368, 0.03774671256542206, 0.41790318489074707
141, 675778847, 7.824881076812744, -5.960554122924805, -1.4694457054138184, 0.1216282993555069, -0.02420399710536003, 0.3801884949207306
142, 675795514, 7.820196628570557, -5.957518100738525, -1.4704078435897827, 0.06140004098415375, 0.011596149764955044, 0.3515150845050812
143, 675812181, 7.816595077514648, -5.9624528884887695, -1.5066776275634766, 0.016244854778051376, 0.021687552332878113, 0.31515783071517944
144, 675828848, 7.817381858825684, -5.963980197906494, -1.478407621383667, 0.012185242027044296, 0.024594595655798912, 0.3360450267791748
145, 675845515, 7.834962368011475, -5.947643756866455, -1.4521011114120483, 0.12879985570907593, -0.1037314310669899, 0.3393234312534332
146, 675862182, 7.841188430786133, -5.955211162567139, -1.4756611585617065, 0.13430657982826233, 0.005513133946806192, 0.34795495867729187
147, 675878849, 7.81266450881958, -5.942626476287842, -1.4696531295776367, 0.2331331968307495, 0.026566771790385246, 0.3772430419921875
148, 675895516, 7.814903259277344, -5.944550514221191, -1.4764944314956665, 0.04331748187541962, -0.023845423012971878, 0.26804327964782715
149, 675912183, 7.828188896179199, -5.954070568084717, -1.4779748916625977, -0.10525539517402649, 0.028769467025995255, 0.24860328435897827
150, 675928850, 7.813584327697754, -5.958702087402344, -1.4555022716522217, 0.15228669345378876, 2.6253017131239176E-4, 0.4355887472629547
151, 675945517, 7.823851108551025, -5.958980560302734, -1.471062183380127, 0.190590500831604, -0.029044799506664276, 0.3857848644256592
152, 675962184, 7.8062639236450195, -5.957875728607178, -1.4750066995620728, -0.0951768010854721, -0.07503240555524826, 0.3495941758155823
153, 675978851, 7.797462463378906, -5.967320442199707, -1.4826240539550781, 0.013491488993167877, 0.05710991472005844, 0.3432805836200714
154, 675995518, 7.832749366760254, -5.963057994842529, -1.4722853899002075, 0.1329747438430786, 0.040205538272857666, 0.23523345589637756
155, 676012185, 7.825972080230713, -5.937337875366211, -1.4767987728118896, 0.20656001567840576, 0.040589723736047745, 0.3955689072608948
156, 676028852, 7.830942630767822, -5.948659420013428, -1.4802887439727783, 0.05664888396859169, 0.010725317522883415, 0.3540763556957245
157, 676045519, 7.824745178222656, -5.954349517822266, -1.4683334827423096, 0.059837665408849716, 0.004053209442645311, 0.32395583391189575
158, 676062186, 7.816169261932373, -5.973002910614014, -1.4599545001983643, 0.2804654538631439, 0.11723572760820389, 0.3938784599304199
159, 676078853, 7.818744659423828, -5.971848011016846, -1.4740984439849854, 0.032175954431295395, -0.05040579289197922, 0.2337350845336914
160, 676095520, 7.790163040161133, -5.967817306518555, -1.4370988607406616, 0.08600104600191116, -0.2021482139825821, 0.19184552133083344
161, 676112187, 7.8344597816467285, -5.951239109039307, -1.5080097913742065, -2.3070127964019775, 1.1084473133087158, 0.2556595802307129
162, 676128854, 7.810551643371582, -5.973275184631348, -1.5584102869033813, 2.2412712574005127, 0.28193819522857666, 0.5916213393211365
163, 676145521, 7.828976154327393, -5.9391913414001465, -1.3951815366744995, 2.3678877353668213, 0.23615549504756927, 0.6501207947731018
164, 676162188, 7.813602924346924, -5.9628987312316895, -1.4167026281356812, -1.4725381135940552, 0.4406217038631439, 0.10679855942726135
165, 676178855, 7.823665142059326, -5.959770679473877, -1.517381191253662, 0.17257194221019745, 0.16720609366893768, 0.331972599029541
166, 676195522, 7.85826301574707, -5.911180019378662, -1.4955958127975464, 3.631554365158081, -0.1831052005290985, 0.06407657265663147
167, 676212189, 7.792212963104248, -5.981836318969727, -1.3683500289916992, 0.11332979798316956, 0.09054730832576752, 0.282412052154541
168, 676228856, 7.852248668670654, -5.924415588378906, -1.5187013149261475, -0.26342660188674927, 0.27743032574653625, 0.46747657656669617
169, 676245523, 7.827752590179443, -5.97727632522583, -1.389957308769226, -0.15801754593849182, 0.31947359442710876, 0.7285467982292175
170, 676262190, 7.817101955413818, -5.974005222320557, -1.5117360353469849, -0.8072226643562317, 0.5671612024307251, 0.256696879863739
171, 676278857, 7.833056926727295, -5.968997001647949, -1.5016406774520874, 2.653878688812256, 0.15593650937080383, 0.45980551838874817
172, 676295524, 7.798612117767334, -5.969439506530762, -1.3968759775161743, 0.6561524868011475, 0.3332660496234894, 0.5274358987808228
173, 676312191, 7.818291187286377, -5.973696708679199, -1.491961121559143, -0.5979669094085693, 0.5984470844268799, 0.1705869883298874
174, 676328858, 7.8365068435668945, -5.947429180145264, -1.4353783130645752, 1.2269954681396484, 1.9209523088647984E-5, 0.4076452851295471
175, 676345525, 7.823267936706543, -5.963325500488281, -1.4232375621795654, -0.5914741158485413, 0.18352137506008148, 0.3065391778945923
176, 676362192, 7.829350471496582, -5.949649333953857, -1.4725465774536133, -0.07773452997207642, 0.2050744742155075, 0.3908177614212036
177, 676378859, 7.827157974243164, -5.963861465454102, -1.4527232646942139, 0.29742103815078735, 0.29529523849487305, 0.3826601505279541
178, 676395526, 7.806241989135742, -5.955193519592285, -1.4677541255950928, 0.10746447741985321, 0.051808085292577744, 0.4634169638156891
179, 676412193, 7.796328544616699, -5.968303680419922, -1.4459142684936523, 0.3866429030895233, -0.44956690073013306, 0.09721940755844116
180, 676428860, 7.817032337188721, -5.976465702056885, -1.472596287727356, 0.37130090594291687, -0.39151573181152344, -0.03102978691458702
181, 676445527, 7.817818641662598, -5.961388111114502, -1.423040747642517, 0.5798779129981995, -0.48546305298805237, -0.013190539553761482
182, 676462194, 7.804925918579102, -5.961673259735107, -1.4667491912841797, 0.30938220024108887, -0.4894074499607086, -0.26278626918792725
183, 676478861, 7.829346179962158, -5.957638740539551, -1.4143447875976562, 0.9593812823295593, -0.7682785391807556, 0.014144613407552242
184, 676495528, 7.851513862609863, -5.934124946594238, -1.4563647508621216, -0.9881891012191772, -0.24220648407936096, -0.3288414478302002
185, 676512195, 7.833739280700684, -5.950933933258057, -1.4768341779708862, 0.49255135655403137, -0.39763712882995605, 0.13645805418491364
186, 676528862, 7.851834774017334, -5.92205286026001, -1.4575369358062744, 0.638825535774231, -0.03548639640212059, 0.1281595379114151
187, 676545529, 7.802515506744385, -5.976078510284424, -1.4339911937713623, -0.6136161684989929, 0.07428322732448578, 0.3687780201435089
188, 676562196, 7.827130317687988, -5.936285972595215, -1.4573938846588135, -0.19016146659851074, -0.04244023934006691, 0.5188428163528442
189, 676578863, 7.824831008911133, -5.956287860870361, -1.4372848272323608, -0.7354943156242371, 0.0982823297381401, 0.3738749921321869
190, 676595530, 7.824269771575928, -5.966368675231934, -1.4185365438461304, -0.6943731307983398, 0.028218792751431465, 0.5367205739021301
191, 676612197, 7.827902317047119, -5.951733589172363, -1.4653223752975464, -1.1704875230789185, 0.11861880123615265, 0.587881863117218
192, 676628864, 7.82003116607666, -5.974257946014404, -1.481008529663086, -0.9207765460014343, 0.38800039887428284, 0.360415518283844
193, 676645531, 7.809722423553467, -5.971145153045654, -1.4705604314804077, 0.6882836222648621, 0.020061146467924118, 0.5200337767601013
194, 676662198, 7.854244709014893, -5.934030055999756, -1.4890156984329224, 1.603028416633606, 0.19240900874137878, 0.1933438926935196
195, 676678865, 7.821307182312012, -5.954968452453613, -1.3745750188827515, 0.5914164185523987, 0.10478795319795609, 0.6581247448921204
196, 676695532, 7.824457168579102, -5.949338436126709, -1.4920679330825806, -2.435511589050293, 0.46646490693092346, 0.25562116503715515
197, 676712199, 7.821620464324951, -5.960345268249512, -1.509484052658081, 1.4261215925216675, -0.08495733141899109, 0.370699018239975
198, 676728866, 7.821873188018799, -5.962130546569824, -1.4398914575576782, 1.777194857597351, -0.1514735221862793, 0.3555363118648529
199, 676745533, 7.818160533905029, -5.962608814239502, -1.448457956314087, -0.9248360991477966, 0.17054855823516846, 0.20767416059970856
200, 676762200, 7.8185834884643555, -5.966315269470215, -1.4766732454299927, -0.5850580334663391, 0.10015206038951874, 0.38308271765708923
201, 676778867, 7.826352596282959, -5.95205020904541, -1.4772597551345825, 1.0212485790252686, 0.04007747024297714, 0.4198881685733795
202, 676795534, 7.829118728637695, -5.975935459136963, -1.4026528596878052, 0.5146807432174683, -0.08879922330379486, 0.3863355815410614
203, 676812201, 7.817885875701904, -5.955665588378906, -1.453663945198059, -0.7607355713844299, 0.015668567270040512, 0.3147224485874176
204, 676828868, 7.844432830810547, -5.943910598754883, -1.5091557502746582, 0.08486127853393555, 0.2194432020187378, 0.3975282907485962
205, 676845535, 7.825644493103027, -5.953451156616211, -1.4508925676345825, 1.0402532815933228, -0.05647600069642067, 0.2430196851491928
206, 676862202, 7.828064441680908, -5.9624714851379395, -1.4171007871627808, -0.007376456633210182, 0.015502084977924824, 0.4764922559261322
207, 676878869, 7.827932834625244, -5.973409652709961, -1.4840199947357178, -0.9568265080451965, 0.24462050199508667, 0.2643294930458069
208, 676895536, 7.825446128845215, -5.968539714813232, -1.4757040739059448, 0.5308295488357544, -0.09680318832397461, 0.42338424921035767
209, 676912203, 7.836338996887207, -5.970098972320557, -1.4405642747879028, 0.5678911805152893, -0.027648907154798508, 0.420605331659317
210, 676928870, 7.827942371368408, -5.953673362731934, -1.4538928270339966, -0.4129919409751892, 0.21626721322536469, 0.30201852321624756
211, 676945537, 7.828023433685303, -5.9462056159973145, -1.4610310792922974, -0.18608908355236053, -0.012319709174335003, 0.376321017742157
212, 676962204, 7.836236000061035, -5.961251258850098, -1.4583163261413574, 0.2930797040462494, -0.11141524463891983, 0.38838455080986023
213, 676978871, 7.844582557678223, -5.956741809844971, -1.429120421409607, 0.08714079856872559, -0.09430595487356186, 0.28702229261398315
214, 676995538, 7.843495845794678, -5.958301544189453, -1.461631417274475, -0.1336214542388916, -0.005160958506166935, 0.3511948883533478
215, 677012205, 7.822563648223877, -5.961723327636719, -1.4723674058914185, 0.04455968737602234, -0.07919446378946304, 0.3429860472679138
216, 677028872, 7.823732852935791, -5.976611137390137, -1.4502521753311157, 0.03772110119462013, -0.002740558935329318, 0.3973362147808075
217, 677045539, 7.80313777923584, -5.959743976593018, -1.4657942056655884, -0.20038095116615295, -0.04564182832837105, 0.2854086756706238
218, 677062206, 7.8259687423706055, -5.952593803405762, -1.4759794473648071, -0.059562332928180695, -0.10951989889144897, 0.3163488209247589
219, 677078873, 7.82724142074585, -5.961000919342041, -1.453417181968689, 0.061028655618429184, -0.1541244089603424, 0.3118666410446167
220, 677095540, 7.832505702972412, -5.946835994720459, -1.4652401208877563, 0.05608540400862694, 0.0059613557532429695, 0.28998059034347534
221, 677112207, 7.842365264892578, -5.9400482177734375, -1.4547653198242188, -0.07094717770814896, 0.055970147252082825, 0.29712653160095215
222, 677128874, 7.833920478820801, -5.951949119567871, -1.458742380142212, -0.08061597496271133, 0.05102689936757088, 0.4102065861225128
223, 677145541, 7.829640865325928, -5.960090637207031, -1.4847698211669922, 0.16963928937911987, 0.04883701354265213, 0.29825347661972046
224, 677162208, 7.821340560913086, -5.9629106521606445, -1.4642101526260376, 0.11038433015346527, -0.07288092374801636, 0.36893168091773987
225, 677178875, 7.828457355499268, -5.959692001342773, -1.4512892961502075, -0.28828370571136475, 0.028116343542933464, 0.31914061307907104
226, 677195542, 7.818061828613281, -5.960379123687744, -1.4725568294525146, 0.03104899264872074, 0.22101837396621704, 0.453095018863678
227, 677212209, 7.830613613128662, -5.959928035736084, -1.4532634019851685, 0.3863227367401123, 0.058595459908246994, 0.3880516290664673
228, 677228876, 7.821108341217041, -5.962088108062744, -1.433122158050537, 0.3667418360710144, -0.031746938824653625, 0.30925413966178894
229, 677245543, 7.739959239959717, -6.05368709564209, -1.4871220588684082, 1.0283564329147339, -0.8354093432426453, -0.15211381018161774
230, 677262210, 7.6922173500061035, -6.222980499267578, -1.649280071258545, 21.215164184570312, -8.803448677062988, -7.887997627258301
231, 677278877, 7.707391738891602, -6.154691219329834, -0.18693208694458008, 62.59912872314453, 3.2877750396728516, 3.340550661087036
232, 677295544, 8.206186294555664, -5.893842697143555, 0.5096269845962524, -9.509956359863281, 17.496562957763672, 3.6177663803100586
233, 677312211, 7.624935150146484, -6.133631706237793, -2.7542381286621094, -1.0217427015304565, 15.246363639831543, 8.142956733703613
234, 677328878, 8.0079345703125, -5.601956367492676, -1.3017199039459229, 27.21999740600586, 21.76405906677246, 7.871618270874023
235, 677345545, 7.849346160888672, -5.691201686859131, -2.1537153720855713, -16.392404556274414, 9.095009803771973, 4.721828460693359
236, 677362212, 7.816504001617432, -5.842021465301514, -2.1464486122131348, -17.94658088684082, -4.622418403625488, 0.21178525686264038
237, 677378879, 7.810626029968262, -6.092257022857666, -0.7839444875717163, -23.429180145263672, -9.66192626953125, -2.29695200920105
238, 677395546, 7.802290916442871, -6.140135765075684, -0.8305968642234802, -21.729745864868164, -1.3576802015304565, -0.12896014750003815
239, 677412213, 7.793146133422852, -6.017453193664551, -1.2509063482284546, -23.165653228759766, 2.7706782817840576, -1.104844331741333
240, 677428880, 7.9761128425598145, -5.7881693840026855, -1.1723262071609497, -3.0576438903808594, -3.335272789001465, 1.7453964948654175
241, 677445547, 7.568786144256592, -6.237204551696777, -1.7176810503005981, -7.451095104217529, -2.5896880626678467, -0.862725555896759
242, 677462214, 8.01867961883545, -5.755608081817627, -1.078925609588623, -13.190739631652832, -5.985294342041016, -1.0279790163040161
243, 677478881, 7.733280181884766, -5.991553783416748, 0.19658049941062927, -61.58127212524414, -3.617790699005127, 0.01884479448199272
244, 677495548, 6.933899402618408, -7.044771671295166, -1.264475703239441, -118.08422088623047, 11.344337463378906, -22.853153228759766
245, 677512215, 7.709628105163574, -7.6298699378967285, -2.252462387084961, 47.10537338256836, 41.734352111816406, -8.1536226272583
246, 677528882, 9.11351203918457, -3.4937944412231445, -1.0537240505218506, 30.860143661499023, 45.85725402832031, 25.70760726928711
247, 677545549, 7.186649322509766, -6.0912675857543945, -3.4883220195770264, 20.49373435974121, 14.76620864868164, 1.6330630779266357
248, 677562216, 8.079123497009277, -5.652458667755127, -2.443042278289795, -19.854637145996094, -4.190871715545654, -5.425816059112549
249, 677578883, 7.764338970184326, -5.682734489440918, -1.9976625442504883, -32.24382019042969, -0.05403023213148117, -15.740586280822754
250, 677595550, 8.12834644317627, -5.925979137420654, -2.087960720062256, -9.509521484375, -5.016279220581055, -16.011030197143555
251, 677612217, 8.083236694335938, -5.372592926025391, -1.1752772331237793, 10.538515090942383, -11.939306259155273, -7.933578968048096
252, 677628884, 8.20500659942627, -5.5037841796875, -1.2603368759155273, 39.677711486816406, -6.7542266845703125, -13.714022636413574
253, 677645551, 7.755599021911621, -6.219792366027832, -0.8718271255493164, 26.38229751586914, 1.1875553131103516, -10.178924560546875
254, 677662218, 7.7153401374816895, -6.004106521606445, -2.0372159481048584, 47.2300910949707, -2.747175693511963, -3.5699517726898193
255, 677678885, 8.116146087646484, -6.335077285766602, -1.4825115203857422, 76.16448211669922, -3.7039284706115723, -0.7817283868789673
256, 677695552, 8.035004615783691, -6.520389556884766, -1.4209703207015991, 52.36589431762695, -10.718389511108398, 14.401336669921875
257, 677712219, 7.934831142425537, -6.034524917602539, -1.2751516103744507, -5.427098751068115, -15.870171546936035, 17.3634033203125
258, 677728886, 7.894199848175049, -5.9135332107543945, -1.8824511766433716, -22.85365104675293, -18.246204376220703, 11.425588607788086
259, 677745553, 8.091050148010254, -6.00130558013916, -1.9105987548828125, 24.708667755126953, -28.714420318603516, 8.754638671875
260, 677762220, 7.925861358642578, -5.925100326538086, -0.6972301602363586, 59.80206298828125, -30.61678695678711, 13.79736042022705
261, 677778887, 7.831679344177246, -5.9958906173706055, -0.3465735614299774, 13.853302955627441, -23.386783599853516, 11.500847816467285
262, 677795554, 7.669072151184082, -5.749190330505371, -0.2969374656677246, 15.595593452453613, -13.89021110534668, 16.196250915527344
263, 677812221, 7.770296573638916, -5.711971759796143, -0.6913638710975647, -9.801730155944824, -0.04205607995390892, 8.450921058654785
264, 677828888, 7.687641620635986, -5.699917793273926, -1.3147128820419312, -2.734412670135498, 5.7854180335998535, 9.185567855834961
265, 677845555, 7.898049831390381, -5.641789436340332, -1.7911510467529297, -0.9591572880744934, -1.182551383972168, 6.0975847244262695
266, 677862222, 7.792701721191406, -5.671058654785156, -1.9289183616638184, 24.096338272094727, -15.876143455505371, 2.457616090774536
267, 677878889, 7.795530319213867, -5.806562900543213, -1.1686135530471802, 39.525543212890625, -24.110145568847656, -4.216266632080078
268, 677895556, 7.65811014175415, -5.907238960266113, -0.5876810550689697, 40.32280731201172, -18.84237289428711, -7.806576728820801
269, 677912223, 7.652866840362549, -6.147979259490967, -0.6584682464599609, 32.41134262084961, -5.869340419769287, -8.217240333557129
270, 677928890, 7.598753452301025, -6.442928314208984, -0.02819860354065895, -19.603307723999023, 5.136989116668701, -12.350545883178711
271, 677945557, 7.638179779052734, -6.490931987762451, -1.4572601318359375, -6.990575313568115, 19.97161865234375, -0.4392201006412506
272, 677962224, 7.953119277954102, -6.32567024230957, -1.1970670223236084, -67.4258041381836, 25.578033447265625, -3.3455920219421387
273, 677978891, 8.084795951843262, -6.1941609382629395, -1.5498055219650269, -89.98937225341797, 21.361053466796875, 0.1322871744632721
274, 677995558, 7.8930253982543945, -5.86781120300293, -2.2966103553771973, -102.84040069580078, 14.720698356628418, 1.6599390506744385
275, 678012225, 8.065119743347168, -5.733244895935059, -2.431757688522339, -53.4055061340332, 3.467552900314331, 3.5483615398406982
276, 678028892, 7.7717437744140625, -5.498985767364502, -2.876039743423462, -2.956448793411255, -5.295259952545166, 3.7136178016662598
277, 678045559, 8.471860885620117, -5.736527442932129, -2.9691646099090576, 54.48778533935547, -19.642335891723633, -8.467162132263184
278, 678062226, 8.011958122253418, -5.943850040435791, -2.6320748329162598, 15.813179016113281, -16.130659103393555, -57.788543701171875
279, 678078893, 8.084918975830078, -6.790065288543701, -4.162119388580322, 95.38239288330078, -45.04423141479492, -23.535400390625
280, 678095560, 8.39198112487793, -7.017838954925537, -2.343841075897217, 121.33119201660156, -64.53005981445312, -11.116336822509766
281, 678112227, 8.201976776123047, -7.080715179443359, -1.6279442310333252, 70.56706237792969, -71.40931701660156, 7.895864486694336
282, 678128894, 7.9700727462768555, -7.0173187255859375, -1.6268038749694824, 34.0030517578125, -65.21759033203125, 29.393064498901367
283, 678145561, 8.16405200958252, -6.677865982055664, -1.314864158630371, 5.716236591339111, -62.975948333740234, 42.427757263183594
284, 678162228, 7.758095741271973, -6.416971206665039, -1.5609599351882935, -17.32363510131836, -59.6839714050293, 51.29453659057617
285, 678178895, 8.191287994384766, -6.305643081665039, -2.0019989013671875, 10.015053749084473, -61.52588653564453, 49.594112396240234
286, 678195562, 7.758543968200684, -6.2314252853393555, -1.206111192703247, 61.23661422729492, -62.91619873046875, 49.18119812011719
287, 678212229, 7.7009100914001465, -6.389286041259766, -0.9134963154792786, 78.48945617675781, -48.999732971191406, 41.496307373046875
288, 678228896, 7.123278617858887, -6.633136749267578, -0.7067155241966248, 109.70433807373047, -29.65791130065918, 41.4373779296875
289, 678245563, 7.213515281677246, -6.594596862792969, -0.26538121700286865, 96.37812042236328, -11.038384437561035, 46.54641342163086
290, 678262230, 6.600514888763428, -4.750032901763916, -1.683018445968628, -47.05830764770508, -8.974342346191406, 30.823240280151367
291, 678278897, 7.867122173309326, -5.023526668548584, -3.842491388320923, -29.81917953491211, -34.43476104736328, 5.972957611083984
292, 678295564, 7.443384170532227, -5.668123722076416, -3.443270444869995, 83.69599151611328, -52.179412841796875, 0.03832431137561798
293, 678312231, 7.268041610717773, -7.212991714477539, -2.325275182723999, 106.46427154541016, -55.03877639770508, -0.654565691947937
294, 678328898, 7.389435291290283, -8.295153617858887, -2.8694820404052734, 158.56161499023438, -46.788238525390625, 31.03975486755371
295, 678345565, 7.546216011047363, -8.040804862976074, -2.452716112136841, 225.08456420898438, -51.762447357177734, 61.31268310546875
296, 678362232, 7.264657497406006, -7.738611221313477, -0.809271514415741, 258.10015869140625, -55.99773406982422, 75.86367797851562
297, 678378899, 6.991619110107422, -7.5575642585754395, -0.1954294741153717, 264.5826110839844, -46.40013122558594, 80.18029022216797
298, 678395566, 6.831381797790527, -7.312954902648926, 0.9306901693344116, 296.90380859375, -30.275516510009766, 87.48989868164062
299, 678412233, 6.533650875091553, -7.386465072631836, 2.5616707801818848, 228.3539581298828, -5.896833419799805, 78.2148208618164
300, 678428900, 7.0249152183532715, -7.865055561065674, 2.541926145553589, 103.75865936279297, 5.987433910369873, 55.82112121582031
301, 678445567, 6.993451118469238, -8.621575355529785, 1.371228575706482, 88.51835632324219, 28.375396728515625, 49.24810028076172
302, 678462234, 6.6715407371521, -9.308479309082031, 1.3146611452102661, 130.61578369140625, 46.50419235229492, 50.79012680053711
303, 678478901, 6.755804538726807, -9.79859733581543, 1.4034446477890015, 108.30064392089844, 44.77840805053711, 62.62200927734375
304, 678495568, 6.518514633178711, -9.660892486572266, 1.3470516204833984, 55.21852493286133, 31.007966995239258, 83.7393569946289
305, 678512235, 6.261632919311523, -8.993120193481445, 1.58906090259552, 11.557845115661621, 13.708060264587402, 100.8383560180664
306, 678528902, 5.34681510925293, -8.054771423339844, 2.009214401245117, 29.73243522644043, 0.9380479454994202, 106.59123992919922
307, 678545569, 5.752511978149414, -7.678856372833252, 3.1965088844299316, 38.90106964111328, 10.904842376708984, 91.37932586669922
308, 678562236, 5.515723705291748, -7.758277893066406, 2.697326183319092, 14.368758201599121, 30.991823196411133, 80.36339569091797
309, 678578903, 5.84913444519043, -7.865554332733154, 1.840769648551941, -0.5133278965950012, 40.0455436706543, 66.69242858886719
310, 678595570, 5.77179479598999, -8.005484580993652, 0.974064290523529, -32.478248596191406, 13.97893238067627, 58.99582290649414
311, 678612237, 4.5893049240112305, -8.028494834899902, 1.1844496726989746, -15.854862213134766, -30.43831443786621, 56.154197692871094
312, 678628904, 4.043172836303711, -8.2333402633667, 2.859893798828125, 25.761157989501953, -50.02139663696289, 59.09452438354492
313, 678645571, 4.293981075286865, -8.422359466552734, 3.3125030994415283, 29.469968795776367, -29.744945526123047, 54.42116928100586
314, 678662238, 4.719502925872803, -8.844549179077148, 2.797023296356201, 17.19142723083496, -15.921028137207031, 56.74331283569336
315, 678678905, 4.722398281097412, -9.08021068572998, 2.9599416255950928, -20.9791202545166, -12.366987228393555, 68.12393188476562
316, 678695572, 3.5552945137023926, -9.673273086547852, 2.8597702980041504, -35.45765686035156, -3.82835054397583, 70.44352722167969
317, 678712239, 3.456470489501953, -10.704207420349121, 3.0624191761016846, -35.027278900146484, 22.065746307373047, 73.64226531982422
318, 678728906, 4.003856182098389, -10.786188125610352, 1.8573596477508545, -35.449832916259766, 15.29072380065918, 92.40592193603516
319, 678745573, 3.7314348220825195, -9.634243965148926, 2.5561468601226807, -41.22743606567383, -11.12868595123291, 115.6574935913086
320, 678762240, 0.8233388662338257, -8.640726089477539, 2.244201183319092, -76.72777557373047, -21.022613525390625, 119.65615844726562
321, 678778907, 1.8841228485107422, -9.676078796386719, 1.8368887901306152, -125.96524810791016, -26.99372673034668, 114.89901733398438
322, 678795574, 1.9287158250808716, -10.393342971801758, 2.1430444717407227, -154.40737915039062, -19.278085708618164, 122.13146209716797
323, 678812241, 2.8997092247009277, -10.290776252746582, 1.6398526430130005, -154.951904296875, -18.979225158691406, 137.30905151367188
324, 678828908, 4.067575454711914, -9.751763343811035, 2.4103610515594482, -129.12757873535156, -19.634315490722656, 146.60487365722656
325, 678845575, 2.2272543907165527, -8.94101333618164, 1.886231541633606, -125.54688262939453, 0.8443541526794434, 150.91700744628906
326, 678862242, 0.9368610382080078, -8.466042518615723, 0.6154336929321289, -121.67352294921875, 24.252330780029297, 139.40438842773438
327, 678878909, 0.40943101048469543, -8.474427223205566, -0.7326605916023254, -105.86883544921875, 27.464603424072266, 117.93583679199219
328, 678895576, -0.03285212069749832, -8.951247215270996, -1.1147913932800293, -98.38887023925781, 15.462654113769531, 86.87996673583984
329, 678912243, 0.7344310879707336, -10.226499557495117, -1.0200037956237793, -59.66139602661133, 0.5549092292785645, 70.13226318359375
330, 678928910, -0.3203263580799103, -11.389283180236816, -0.8144145011901855, -44.85819625854492, -0.4378402531147003, 94.0589828491211
331, 678945577, -0.3439427614212036, -10.886713981628418, -0.9604366421699524, -62.73637390136719, -2.7373745441436768, 128.4325714111328
332, 678962244, -0.7776702046394348, -9.653332710266113, -1.757836103439331, -75.52481842041016, 1.1362426280975342, 134.5152130126953
333, 678978911, -0.815536618232727, -9.571738243103027, -2.0443308353424072, -65.19995880126953, -7.086223602294922, 128.89199829101562
334, 678995578, -1.334381103515625, -9.119044303894043, -2.155021905899048, -67.54729461669922, -24.151294708251953, 132.36630249023438
335, 679012245, -1.9729989767074585, -8.7615385055542, -1.5685255527496338, -43.37163162231445, -33.052467346191406, 138.56719970703125
336, 679028912, -2.615680456161499, -8.667766571044922, -1.211051344871521, -37.987728118896484, -27.185453414916992, 140.7412109375
337, 679045579, -3.07817006111145, -8.81937026977539, -1.5120623111724854, -49.79383850097656, -22.492813110351562, 138.33346557617188
338, 679062246, -3.379131317138672, -9.447460174560547, -2.3027985095977783, -49.47157669067383, -22.257829666137695, 141.0157012939453
339, 679078913, -3.206113815307617, -9.69962215423584, -2.67983341217041, -33.016536712646484, -25.863929748535156, 162.62281799316406
340, 679095580, -3.1719679832458496, -8.707695960998535, -2.557844400405884, -24.490699768066406, -28.95905303955078, 187.3008575439453
341, 679112247, -3.870332956314087, -7.238252639770508, -2.6180596351623535, -19.140125274658203, -28.02180290222168, 192.31573486328125
342, 679128914, -4.594244956970215, -6.608243465423584, -2.9238028526306152, -6.061822891235352, -37.56978988647461, 185.94955444335938
343, 679145581, -4.9169182777404785, -6.812957763671875, -2.4761314392089844, 14.258904457092285, -51.38452911376953, 189.46559143066406
344, 679162248, -5.004804611206055, -6.371414661407471, -1.9701846837997437, 20.35576057434082, -48.03590774536133, 207.14312744140625
345, 679178915, -5.333217620849609, -4.592701435089111, -2.0733959674835205, 11.534402847290039, -35.30508804321289, 218.3808135986328
346, 679195582, -5.973346710205078, -3.032472610473633, -2.631014108657837, 17.29010581970215, -33.305198669433594, 209.78321838378906
347, 679212249, -6.806196689605713, -2.7750649452209473, -2.696958541870117, 53.0314826965332, -55.04249572753906, 188.9534149169922
348, 679228916, -6.850709438323975, -3.574753761291504, -1.463357925415039, 97.88558959960938, -66.39553833007812, 187.26864624023438
349, 679245583, -7.090029239654541, -3.0371782779693604, -0.6605132222175598, 116.95296478271484, -50.68665313720703, 202.79049682617188
350, 679262250, -7.5980095863342285, -1.440019965171814, -0.871627688407898, 89.47683715820312, -29.2409725189209, 193.3716583251953
351, 679278917, -8.285730361938477, -0.7151047587394714, -1.6345394849777222, 67.27352905273438, -30.93376350402832, 158.5402374267578
352, 679295584, -8.813697814941406, -1.5083309412002563, -1.0600873231887817, 48.754180908203125, -42.9559211730957, 117.36210632324219
353, 679312251, -9.152523040771484, -2.9038405418395996, -0.544470489025116, 45.802024841308594, -41.69702911376953, 102.66468811035156
354, 679328918, -9.129303932189941, -3.5781824588775635, -0.41298964619636536, 68.02819061279297, -35.748409271240234, 113.4985580444336
355, 679345585, -8.977904319763184, -3.0114083290100098, -0.4068053960800171, 76.63618469238281, -30.791858673095703, 131.01182556152344
356, 679362252, -9.340133666992188, -1.7441035509109497, -0.1083233505487442, 67.9635009765625, -38.734004974365234, 134.0953369140625
357, 679378919, -9.476582527160645, -1.5255389213562012, 0.7366480827331543, 76.44676208496094, -34.18387985229492, 126.20559692382812
358, 679395586, -9.190192222595215, -1.655179500579834, 0.8688408732414246, 47.7198486328125, -10.427563667297363, 119.06090545654297
359, 679412253, -8.699782371520996, -0.5359969139099121, -1.0383862257003784, 9.486294746398926, 5.840086936950684, 116.62860870361328
360, 679428920, -8.468544006347656, -0.13008074462413788, -2.7474002838134766, 39.58311462402344, -8.89284896850586, 107.56106567382812
361, 679445587, -8.806609153747559, -1.1263012886047363, -2.5371599197387695, 77.3056640625, -49.13683319091797, 106.45580291748047
362, 679462254, -8.208403587341309, -2.0940074920654297, -0.9461202621459961, 126.78762817382812, -66.99647521972656, 132.14630126953125
363, 679478921, -7.671657085418701, -0.13556300103664398, 0.20418637990951538, 62.322669982910156, -52.91992950439453, 157.36578369140625
364, 679495588, -7.509346961975098, 3.6654324531555176, 0.27450481057167053, -37.28412628173828, -35.30856704711914, 143.76876831054688
365, 679512255, -7.967800140380859, 6.797394752502441, 0.19099260866641998, -97.48661804199219, -34.446407318115234, 97.4189682006836
366, 679528922, -8.494182586669922, 7.827965259552002, 0.6444315314292908, -98.42543029785156, -46.43830490112305, 40.71343231201172
367, 679545589, -9.572111129760742, 6.626303195953369, 2.45093035697937, -107.59410858154297, -48.58525466918945, -43.41522216796875
368, 679562256, -9.652000427246094, 4.854034900665283, 2.6120965480804443, -93.49087524414062, -30.58573341369629, -123.07678985595703
369, 679578923, -9.607222557067871, 2.3724477291107178, 3.226989507675171, -76.00020599365234, -16.67020034790039, -149.06179809570312
370, 679595590, -9.756640434265137, 1.01127028465271, 3.5073869228363037, -97.70308685302734, -7.746092796325684, -156.0469970703125
371, 679612257, -10.302091598510742, 0.26119130849838257, 3.985948085784912, -132.19088745117188, -3.7792320251464844, -154.7433624267578
372, 679628924, -10.539031028747559, -0.3160586357116699, 4.291368007659912, -192.072265625, 15.17796802520752, -163.93978881835938
373, 679645591, -10.087882041931152, -1.568988561630249, 3.659268379211426, -183.5802764892578, 51.590152740478516, -165.58633422851562
374, 679662258, -10.33880615234375, -2.9600236415863037, 1.6128555536270142, -112.02838134765625, 69.54588317871094, -162.705810546875
375, 679678925, -9.217743873596191, -4.747557640075684, 1.0547749996185303, -1.969041347503662, 74.40161895751953, -149.20028686523438
376, 679695592, -8.506014823913574, -5.249253749847412, 0.5439196228981018, -37.08020782470703, 72.11318969726562, -110.7442855834961
377, 679712259, -8.83198070526123, -4.588156223297119, 1.1525239944458008, -140.85409545898438, 53.464115142822266, -75.81356048583984
378, 679728926, -9.09946060180664, -3.444027900695801, 0.5475555658340454, -222.8343963623047, 49.54615783691406, -63.20351791381836
379, 679745593, -9.174216270446777, -2.960127115249634, -0.7946391701698303, -114.14274597167969, 67.73886108398438, -73.5416030883789
380, 679762260, -8.711569786071777, -3.4056594371795654, -1.5526944398880005, 2.3571298122406006, 83.01892852783203, -100.01123809814453
381, 679778927, -7.9740071296691895, -4.611456394195557, -1.5664069652557373, 61.43199157714844, 81.75696563720703, -113.28400421142578
382, 679795594, -7.500899791717529, -5.4272847175598145, -1.6049684286117554, 36.36836624145508, 72.30992889404297, -107.01187133789062
383, 679812261, -7.223423004150391, -5.785000801086426, -1.7527209520339966, -57.65812301635742, 70.11092376708984, -100.70710754394531
384, 679828928, -7.194096088409424, -5.682008743286133, -2.8008716106414795, -150.6836700439453, 57.63916778564453, -95.54217529296875
385, 679845595, -7.4013495445251465, -5.677793025970459, -3.5965805053710938, -189.9471435546875, 34.940704345703125, -89.58233642578125
386, 679862262, -7.456398963928223, -5.872392177581787, -3.5102009773254395, -139.79730224609375, 19.610397338867188, -72.8394775390625
387, 679878929, -7.428102493286133, -5.9369120597839355, -2.8562378883361816, -106.41241455078125, 12.437267303466797, -54.395992279052734
388, 679895596, -7.5273895263671875, -5.933545112609863, -2.368399143218994, -103.87615203857422, 11.141633033752441, -37.8841552734375
389, 679912263, -7.727087020874023, -5.551421642303467, -2.0680043697357178, -150.41943359375, 21.676464080810547, -34.22146224975586
390, 679928930, -7.675983905792236, -5.993730068206787, -3.6119017601013184, -140.90859985351562, 38.652671813964844, -35.227561950683594
391, 679945597, -7.632261753082275, -5.428518772125244, -4.567270278930664, -105.23173522949219, 32.769073486328125, -30.331674575805664
392, 679962264, -7.370450019836426, -5.304286956787109, -4.0586137771606445, -85.9816665649414, 16.685226440429688, -34.655487060546875
393, 679978931, -7.484494209289551, -5.49783992767334, -3.30641508102417, -117.7142562866211, 7.77334451675415, -38.300811767578125
394, 679995598, -7.536645889282227, -5.653002738952637, -3.2122905254364014, -141.46144104003906, 22.125118255615234, -37.64070129394531
395, 680012265, -7.247258186340332, -5.589183807373047, -3.865971803665161, -131.04055786132812, 39.9296875, -29.7513484954834
396, 680028932, -7.235881805419922, -5.205249786376953, -4.399468421936035, -170.80294799804688, 47.76437759399414, -27.298551559448242
397, 680045599, -6.924293041229248, -5.098939895629883, -5.3815131187438965, -170.4333953857422, 56.7100830078125, -30.427806854248047
398, 680062266, -6.711969375610352, -5.299165725708008, -6.216894149780273, -183.99180603027344, 55.373416900634766, -27.68349838256836
399, 680078933, -6.493643283843994, -5.325157642364502, -6.746201515197754, -188.9329833984375, 35.368690490722656, -17.129114151000977
400, 680095600, -6.503293037414551, -4.448647499084473, -6.55227518081665, -179.8996124267578, 15.131078720092773, -4.635304927825928
401, 680112267, -6.683765888214111, -3.8094794750213623, -6.333585262298584, -146.5792694091797, 16.30805778503418, -5.663454055786133
402, 680128934, -6.853649139404297, -4.15657901763916, -6.623168468475342, -120.54598236083984, 30.28068733215332, -13.032907485961914
403, 680145601, -6.070565223693848, -4.600503444671631, -7.720648765563965, -105.83834838867188, 45.79472351074219, -0.3425602912902832
404, 680162268, -5.760951042175293, -4.294731616973877, -8.357985496520996, -169.28826904296875, 31.467140197753906, 16.53136444091797
405, 680178935, -6.149932861328125, -3.143852472305298, -8.379674911499023, -198.1873779296875, -3.51762056350708, 28.777475357055664
406, 680195602, -6.810397624969482, -2.3325185775756836, -7.089616775512695, -153.99644470214844, -13.189934730529785, 23.477052688598633
407, 680212269, -6.899181842803955, -2.502974510192871, -7.054464340209961, -93.1673583984375, 7.64776611328125, 16.912124633789062
408, 680228936, -6.466858863830566, -2.6107354164123535, -7.550345420837402, -72.11144256591797, 16.385221481323242, 19.162168502807617
409, 680245603, -6.370590686798096, -2.1693966388702393, -7.629689693450928, -100.4990005493164, 9.624675750732422, 24.053443908691406
410, 680262270, -6.384590148925781, -1.441324234008789, -7.515483856201172, -116.55950164794922, 4.426550388336182, 25.247337341308594
411, 680278937, -6.428189277648926, -1.1926831007003784, -7.102119445800781, -128.08277893066406, 4.982893466949463, 19.402236938476562
412, 680295604, -6.513315677642822, -1.2563811540603638, -7.46764612197876, -133.3500518798828, 11.424097061157227, 19.821147918701172
413, 680312271, -6.609321117401123, -0.9631896018981934, -8.200955390930176, -113.5105972290039, 8.888919830322266, 23.197751998901367
414, 680328938, -6.5, -0.5543521046638489, -8.32776927947998, -105.03034973144531, 0.6175538897514343, 24.716854095458984
415, 680345605, -6.566342353820801, -0.010392896831035614, -8.166736602783203, -93.04549407958984, -1.9850610494613647, 22.598642349243164
416, 680362272, -6.491132736206055, 0.0014394298195838928, -8.026433944702148, -96.3469467163086, -1.6910713911056519, 17.28672981262207
417, 680378939, -6.422607421875, 0.2047474980354309, -7.941000938415527, -101.29126739501953, -2.446296215057373, 16.796659469604492
418, 680395606, -6.474648475646973, 0.2902371287345886, -7.9561357498168945, -105.72918701171875, -5.130084991455078, 15.499683380126953
419, 680412273, -6.5331292152404785, 0.4823658764362335, -7.802515029907227, -96.9897232055664, -9.280389785766602, 18.437063217163086
420, 680428940, -6.525760173797607, 1.0352129936218262, -7.504559516906738, -91.84042358398438, -9.353744506835938, 19.520648956298828
421, 680445607, -6.574516296386719, 1.2707674503326416, -7.534506797790527, -93.19674682617188, -5.162402153015137, 14.40711784362793
422, 680462274, -6.627882957458496, 1.3902149200439453, -7.63845682144165, -84.4717025756836, -1.055923581123352, 13.217755317687988
423, 680478941, -6.606723308563232, 1.5338501930236816, -8.054299354553223, -72.91375732421875, -0.5577913522720337, 13.066462516784668
424, 680495608, -6.583841323852539, 1.9005331993103027, -8.151371002197266, -51.751338958740234, -10.648408889770508, 11.89594554901123
425, 680512275, -6.648107051849365, 1.984807014465332, -7.31039571762085, -33.027862548828125, -14.864733695983887, 5.364087104797363
426, 680528942, -6.4167680740356445, 1.5438847541809082, -6.704434871673584, -33.47473907470703, -6.708366394042969, 8.084074974060059
427, 680545609, -6.564639568328857, 1.634065866470337, -6.481058597564697, -68.2469482421875, 9.007946014404297, 15.538325309753418
428, 680562276, -6.606285572052002, 1.8609166145324707, -7.614640235900879, -86.57714080810547, 19.214492797851562, 19.573108673095703
429, 680578943, -6.499865531921387, 1.8385872840881348, -8.067755699157715, -112.00535583496094, 14.377366065979004, 21.659128189086914
430, 680595610, -6.444788932800293, 2.1581363677978516, -7.909363269805908, -131.11529541015625, 1.274550437927246, 31.86200714111328
431, 680612277, -6.463075160980225, 2.9390008449554443, -7.1437907218933105, -136.54478454589844, -8.02457332611084, 34.855777740478516
432, 680628944, -6.4287824630737305, 3.636599540710449, -6.611825942993164, -124.82109069824219, -6.486550807952881, 30.502395629882812
433, 680645611, -6.4527812004089355, 4.139867782592773, -6.715630054473877, -92.80565643310547, -2.992901563644409, 22.311870574951172
434, 680662278, -6.656384468078613, 4.1609601974487305, -6.869478225708008, -53.82219696044922, -2.2299673557281494, 9.320514678955078
435, 680678945, -6.59397029876709, 3.478158473968506, -6.867630958557129, -35.1596794128418, -2.5218119621276855, 2.5331647396087646
436, 680695612, -6.517189025878906, 3.2776923179626465, -6.656682014465332, -40.67322540283203, -1.8911634683609009, 8.586895942687988
437, 680712279, -6.509746551513672, 3.71232271194458, -6.6759934425354, -45.58799743652344, -1.6536587476730347, 14.816304206848145
438, 680728946, -6.4606122970581055, 4.115906715393066, -6.366880416870117, -42.69221496582031, -1.505294680595398, 13.852349281311035
439, 680745613, -6.2874555587768555, 4.157411575317383, -6.341794490814209, -56.0216064453125, 4.184018611907959, 13.235589027404785
440, 680762280, -6.366022109985352, 4.398261547088623, -6.7598419189453125, -62.970218658447266, 6.659971237182617, 14.598491668701172
441, 680778947, -6.2982001304626465, 4.629495620727539, -7.016266345977783, -45.18414306640625, 1.3035366535186768, 14.041703224182129
442, 680795614, -6.274886131286621, 4.871087551116943, -6.693868637084961, -25.42527198791504, -4.926283359527588, 11.540351867675781
443, 680812281, -6.394355297088623, 5.153230667114258, -7.075952529907227, 9.583438873291016, -5.800229549407959, 3.9203011989593506
444, 680828948, -6.540404319763184, 4.9458231925964355, -7.476810455322266, 58.77431106567383, -10.649663925170898, -5.60533332824707
445, 680845615, -6.390130996704102, 4.313091278076172, -7.2298431396484375, 79.51763153076172, -21.61774444580078, -7.148049831390381
446, 680862282, -6.263566493988037, 3.867211103439331, -6.235004901885986, 82.62013244628906, -26.78909683227539, 0.2840203642845154
447, 680878949, -6.376140117645264, 3.860658645629883, -6.333436489105225, 79.98880004882812, -18.957414627075195, 9.432021141052246
448, 680895616, -6.430523872375488, 4.3059892654418945, -6.582266807556152, 110.82678985595703, -15.137031555175781, 16.243621826171875
449, 680912283, -6.387819766998291, 4.554009914398193, -6.917759895324707, 162.02049255371094, -8.84047794342041, 18.84267234802246
450, 680928950, -6.215571880340576, 5.078303337097168, -8.61428165435791, 231.0669403076172, -7.222306251525879, 18.108699798583984
451, 680945617, -6.558479309082031, 5.067808151245117, -8.977710723876953, 338.7939147949219, -23.458446502685547, 3.826664686203003
452, 680962284, -6.863402843475342, 3.173459053039551, -8.407919883728027, 385.1333923339844, -45.986942291259766, -25.3920841217041
453, 680978951, -6.548977851867676, 0.5672200322151184, -6.6185383796691895, 327.5614013671875, -61.778533935546875, -39.78811264038086
454, 680995618, -6.478888511657715, -0.41192156076431274, -6.049076080322266, 256.93963623046875, -55.19219970703125, -17.488977432250977
455, 681012285, -6.627022743225098, 0.02238483726978302, -6.010418891906738, 187.47315979003906, -34.5178337097168, -2.3572466373443604
456, 681028952, -6.785089492797852, 0.40035516023635864, -6.512298583984375, 157.4872283935547, -19.51805877685547, -3.6425514221191406
457, 681045619, -6.698263645172119, 0.04029524326324463, -6.922296524047852, 136.11502075195312, -14.88061237335205, -13.53990364074707
458, 681062286, -6.58191442489624, -0.29507237672805786, -7.23198938369751, 147.7067413330078, -10.593765258789062, -14.946521759033203
459, 681078953, -6.846158504486084, -0.5791040658950806, -7.368743896484375, 152.72413635253906, -6.413724899291992, -18.343889236450195
460, 681095620, -7.930879592895508, -1.5565447807312012, -7.694149971008301, 180.3239288330078, -12.445114135742188, -32.28289794921875
461, 681112287, -7.276358604431152, -2.8724167346954346, -7.234133243560791, 198.01454162597656, -27.9932861328125, -34.5819206237793
462, 681128954, -7.065235614776611, -3.4141201972961426, -6.24589729309082, 170.39895629882812, -33.20634078979492, -13.846450805664062
463, 681145621, -7.268787860870361, -3.0827043056488037, -6.359259605407715, 133.64520263671875, -33.45425796508789, 2.7766730785369873
464, 681162288, -7.109622955322266, -2.4872593879699707, -6.6596903800964355, 135.63217163085938, -33.91948318481445, 8.964174270629883
465, 681178955, -7.218685150146484, -2.1844136714935303, -6.3170084953308105, 147.2517547607422, -35.96902084350586, 4.006298065185547
466, 681195622, -7.366562843322754, -2.598851442337036, -6.02932596206665, 160.32794189453125, -34.32788848876953, -7.124388217926025
467, 681212289, -7.310375690460205, -3.1426808834075928, -5.718709468841553, 177.18807983398438, -28.53323745727539, -11.127501487731934
468, 681228956, -7.364655017852783, -3.629314422607422, -5.357405662536621, 173.0276336669922, -21.8543643951416, -9.761716842651367
469, 681245623, -7.467635631561279, -4.081823348999023, -5.893148899078369, 172.18113708496094, -22.65541648864746, -11.265104293823242
470, 681262290, -7.254917144775391, -4.0784687995910645, -5.809054851531982, 225.04080200195312, -27.961870193481445, -6.711180686950684
471, 681278957, -7.519996643066406, -4.323346138000488, -5.660172939300537, 279.01116943359375, -35.06416320800781, -13.257381439208984
472, 681295624, -7.124136447906494, -4.736059188842773, -4.646772384643555, 347.7816162109375, -50.845462799072266, -12.209107398986816
473, 681312291, -7.2089524269104, -4.902093887329102, -2.7946295738220215, 339.1129150390625, -50.83543014526367, -9.775261878967285
474, 681328958, -7.184769630432129, -5.234892845153809, -2.5319876670837402, 290.2857666015625, -39.43111801147461, -11.591490745544434
475, 681345625, -6.654153823852539, -5.572178363800049, -2.971323013305664, 303.68927001953125, -23.100786209106445, -13.773618698120117
476, 681362292, -6.878479480743408, -6.232371807098389, -2.467881441116333, 299.6147155761719, -18.6921443939209, -19.755704879760742
477, 681378959, -7.176826477050781, -6.977831840515137, -1.6453664302825928, 210.70860290527344, -45.44580841064453, -17.87848663330078
478, 681395626, -7.2498321533203125, -7.124992370605469, -0.544625997543335, 154.20999145507812, -67.84442901611328, 0.21192146837711334
479, 681412293, -7.756875991821289, -6.706506252288818, 1.0732231140136719, 97.18927001953125, -62.47507095336914, 17.39975357055664
480, 681428960, -7.986143112182617, -6.317407608032227, 0.9984812140464783, 65.69296264648438, -40.4367790222168, 24.755355834960938
481, 681445627, -7.9124531745910645, -6.131844520568848, 0.5379905700683594, 65.85118865966797, -24.052833557128906, 22.433134078979492
482, 681462294, -7.497824192047119, -6.218521595001221, 0.027906768023967743, 80.12447357177734, -16.79168128967285, 18.198909759521484
483, 681478961, -7.27540922164917, -6.1601972579956055, 0.029462076723575592, 75.34137725830078, -22.815227508544922, 18.37090492248535
484, 681495628, -7.343064785003662, -6.172175884246826, -0.06353940814733505, 88.12725067138672, -33.257381439208984, 24.604225158691406
485, 681512295, -7.687019348144531, -5.941020488739014, 1.190596103668213, 103.8077392578125, -38.527549743652344, 31.734272003173828
486, 681528962, -8.155312538146973, -5.813691139221191, 2.206068277359009, 64.69005584716797, -35.256500244140625, 41.558319091796875
487, 681545629, -8.04298210144043, -5.521188735961914, 1.8465347290039062, 20.549468994140625, -23.782360076904297, 46.7421875
488, 681562296, -7.618961334228516, -4.910098552703857, 1.0677908658981323, 3.7232933044433594, -16.706363677978516, 47.14820098876953
489, 681578963, -7.603830337524414, -4.230238914489746, 0.44387057423591614, 0.4934392273426056, -23.96245574951172, 42.59821319580078
490, 681595630, -8.249309539794922, -3.730975866317749, 0.6677942276000977, 7.1165947914123535, -43.26408386230469, 32.22388458251953
491, 681612297, -8.522071838378906, -3.6289772987365723, 1.662843108177185, 30.0163631439209, -51.25141906738281, 15.665555000305176
492, 681628964, -8.04551887512207, -4.341463565826416, 1.739196538925171, 60.850318908691406, -37.129207611083984, -4.122463226318359
493, 681645631, -8.06418228149414, -4.177820205688477, 2.565256357192993, 49.10626220703125, -19.1492919921875, -18.264259338378906
494, 681662298, -8.075825691223145, -3.542562246322632, 1.383440613746643, 13.559015274047852, -19.610675811767578, -43.97591781616211
495, 681678965, -7.970602512359619, -3.181199312210083, 1.266829013824463, 27.009010314941406, -37.59796905517578, -77.45706176757812
496, 681695632, -7.787870407104492, -4.096607208251953, 2.773261785507202, 54.19814682006836, -44.906131744384766, -90.16504669189453
497, 681712299, -7.475395679473877, -5.0371904373168945, 3.3337886333465576, 64.43043518066406, -28.26566505432129, -85.27039337158203
498, 681728966, -7.431910991668701, -5.044033527374268, 2.8473057746887207, 64.87130737304688, -19.40940284729004, -70.11820983886719
499, 681745633, -6.847636699676514, -3.8609583377838135, 2.177887439727783, 53.624717712402344, -28.54621124267578, -74.93621826171875
500, 681762300, -7.263894081115723, -2.69568133354187, 2.391695499420166, 62.34039306640625, -44.45982360839844, -104.72241973876953
501, 681778967, -7.105863571166992, -3.001344919204712, 3.1717185974121094, 88.10824584960938, -41.37376022338867, -149.95465087890625
502, 681795634, -6.390094757080078, -4.89372444152832, 3.6545910835266113, 119.96990966796875, -28.752676010131836, -177.917724609375
503, 681812301, -5.651875972747803, -6.6818528175354, 4.135363578796387, 125.90508270263672, -22.84419822692871, -177.57342529296875
504, 681828968, -5.833998203277588, -6.580547332763672, 5.083327293395996, 83.41117858886719, -10.798784255981445, -157.49009704589844
505, 681845635, -6.42643928527832, -4.799073219299316, 4.6328582763671875, 18.671756744384766, 3.470811367034912, -151.05197143554688
506, 681862302, -4.969439506530762, -4.241148948669434, 2.9530045986175537, -10.487672805786133, -2.780787229537964, -185.0305938720703
507, 681878969, -2.910498857498169, -6.459768772125244, 1.8104584217071533, 36.68707275390625, -22.988056182861328, -244.5699005126953
508, 681895636, -2.2292799949645996, -9.043228149414062, 3.2195394039154053, 70.12281036376953, -54.246498107910156, -291.130126953125
509, 681912303, -1.343417763710022, -11.308298110961914, 3.5346105098724365, 59.6419792175293, -64.12879943847656, -197.4364471435547
510, 681928970, -2.7404909133911133, -10.847261428833008, 5.138836860656738, -36.53074645996094, -62.82144546508789, -100.54247283935547
511, 681945637, -2.332777500152588, -7.983135223388672, 4.789499282836914, -89.56686401367188, -56.9847412109375, -51.21982192993164
512, 681962304, -1.652030348777771, -6.945993900299072, 4.9111714363098145, -49.37754821777344, -39.101802825927734, -71.3783950805664
513, 681978971, -1.5025752782821655, -8.619744300842285, 5.286962032318115, 4.197193145751953, -6.9194817543029785, -108.39530944824219
514, 681995638, -1.2129079103469849, -9.881974220275879, 4.585933208465576, -0.5675872564315796, 5.12669563293457, -106.43049621582031
515, 682012305, -1.0798410177230835, -9.794422149658203, 4.040841102600098, -31.517208099365234, -3.7523910999298096, -70.73764038085938
516, 682028972, -1.1236101388931274, -8.776681900024414, 4.213980197906494, -45.75572967529297, -3.0164389610290527, -45.14674377441406
517, 682045639, -1.5283682346343994, -8.99539566040039, 3.193554639816284, -38.12550354003906, 13.073631286621094, -51.9169921875
518, 682062306, -0.8236740231513977, -10.196928977966309, 2.7638401985168457, -24.81910514831543, 5.592404842376709, -47.843162536621094
519, 682078973, -0.9615396857261658, -11.178176879882812, 2.478649854660034, 14.031807899475098, -11.711886405944824, -20.69670867919922
520, 682095640, -1.4614863395690918, -10.631797790527344, 4.324485778808594, 13.776686668395996, -36.59614562988281, 14.670101165771484
521, 682112307, -1.606895923614502, -8.974406242370605, 4.982809066772461, -69.4778823852539, -45.23537063598633, 33.174232482910156
522, 682128974, -0.48923465609550476, -7.340011119842529, 4.501916408538818, -90.5129623413086, -45.33976364135742, 31.039777755737305
523, 682145641, -0.3440854847431183, -6.662739276885986, 3.948314666748047, -70.51448822021484, -36.9340705871582, -1.3993812799453735
524, 682162308, -0.20657889544963837, -6.936135768890381, 3.496703624725342, -22.072893142700195, -20.474889755249023, -42.98517608642578
525, 682178975, -0.056109216064214706, -7.490594863891602, 3.417208194732666, -5.557621002197266, -19.52226448059082, -68.77786254882812
526, 682195642, -0.04816523194313049, -8.74045467376709, 3.3257510662078857, -34.01123046875, -10.857726097106934, -94.29893493652344
527, 682212309, 1.221744179725647, -9.730733871459961, 2.816986083984375, 48.33934783935547, 18.70484733581543, -105.36995697021484
528, 682228976, 1.0428303480148315, -10.20042896270752, 3.212146043777466, 112.60892486572266, 27.197986602783203, -108.41490173339844
529, 682245643, 0.5167642831802368, -9.799164772033691, 5.279151916503906, 100.31925964355469, 11.304452896118164, -76.74300384521484
530, 682262310, 0.2830082178115845, -10.386982917785645, 4.268955230712891, 14.48922348022461, 33.78394317626953, -60.09304428100586
531, 682278977, 0.875983476638794, -10.731602668762207, 2.6054234504699707, 33.608253479003906, 30.86927604675293, -48.88039016723633
532, 682295644, 0.959272563457489, -10.461669921875, 3.035022258758545, 43.010684967041016, -11.011954307556152, -11.716540336608887
533, 682312311, 0.268286794424057, -9.313627243041992, 5.681363105773926, 39.9637451171875, -6.987185001373291, 7.242904186248779
534, 682328978, -0.10740011185407639, -8.3064546585083, 4.887535095214844, 138.79586791992188, 24.395715713500977, 30.519248962402344
535, 682345645, -0.8524562120437622, -7.020507335662842, 6.16848611831665, 252.8433074951172, 52.64739990234375, 32.96762466430664
536, 682362312, -0.6279090642929077, -6.644206523895264, 5.519970893859863, 185.63194274902344, 66.20777130126953, 10.744409561157227
537, 682378979, -0.21143215894699097, -6.963522434234619, 4.086040019989014, 126.64115142822266, 33.3580207824707, -4.494276523590088
538, 682395646, -0.02733825147151947, -7.098723888397217, 4.472294330596924, 149.3975067138672, -16.210906982421875, -8.469874382019043
539, 682412313, -0.11773523688316345, -6.561900615692139, 6.823237895965576, 183.3500518798828, -27.97846031188965, -15.260510444641113
540, 682428980, -0.0070948051288723946, -6.349914073944092, 7.072551250457764, 190.63131713867188, -8.98193645477295, -17.08182144165039
541, 682445647, 0.20986007153987885, -6.028006553649902, 7.9948811531066895, 223.93382263183594, -5.043394565582275, -10.108397483825684
542, 682462314, 0.45078733563423157, -5.793665885925293, 8.416583061218262, 185.41844177246094, 13.834566116333008, -19.4462890625
543, 682478981, 0.6899155974388123, -5.759364128112793, 7.763724327087402, 169.71719360351562, 20.080556869506836, -22.55621337890625
544, 682495648, 0.5087583065032959, -5.421909809112549, 8.267289161682129, 178.4091033935547, 16.442832946777344, -19.349458694458008
545, 682512315, 0.37521740794181824, -4.856235504150391, 8.35794448852539, 180.80186462402344, 24.075164794921875, -7.1473708152771
546, 682528982, 0.01047227531671524, -3.566494941711426, 8.849226951599121, 198.75564575195312, 30.033626556396484, -5.216180801391602
547, 682545649, -0.15955568850040436, -2.869856834411621, 9.513232231140137, 202.26792907714844, 39.1014289855957, -17.05189323425293
548, 682562316, -0.32529979944229126, -2.6832785606384277, 9.676031112670898, 212.1685028076172, 59.107242584228516, -24.342845916748047
549, 682578983, -0.6615710854530334, -2.1043572425842285, 9.46655559539795, 213.68402099609375, 81.22785186767578, -27.27855110168457
550, 682595650, -0.614712655544281, -1.2249412536621094, 9.28736686706543, 253.52212524414062, 80.0615234375, -24.654653549194336
551, 682612317, -0.6774976253509521, -0.449590802192688, 9.416072845458984, 305.50640869140625, 73.3741455078125, -22.44676399230957
552, 682628984, -0.9791907668113708, 0.330767959356308, 9.268834114074707, 339.3093566894531, 75.20458221435547, -21.517820358276367
553, 682645651, -1.3016549348831177, 0.4708596169948578, 9.389431953430176, 217.11614990234375, 60.57074737548828, -35.62712097167969
554, 682662318, -0.7834470868110657, 0.8248592615127563, 7.939581394195557, 150.50216674804688, 24.688772201538086, -21.84332847595215
555, 682678985, -0.9073048233985901, 1.6325914859771729, 8.754281997680664, 169.12562561035156, 0.983063817024231, -12.78841781616211
556, 682695652, -0.8705413937568665, 2.922783851623535, 7.790741443634033, 249.392578125, -1.55446195602417, -3.5860073566436768
557, 682712319, -1.3348472118377686, 6.078451633453369, 7.556919097900391, 469.5049133300781, 14.66346549987793, -5.634144306182861
558, 682728986, -1.462801218032837, 8.64624309539795, 6.672330856323242, 701.6373901367188, 27.015993118286133, -33.865760803222656
559, 682745653, -1.7264366149902344, 9.668466567993164, 7.583015441894531, 824.1864013671875, 21.212614059448242, -73.34793090820312
560, 682762320, -2.038919448852539, 8.045915603637695, 10.199324607849121, 625.4370727539062, 17.75202751159668, -131.42137145996094
561, 682778987, -1.749983549118042, 6.3367600440979, 8.499156951904297, 312.4561462402344, 46.8615837097168, -130.72227478027344
562, 682795654, -1.4949612617492676, 5.942009925842285, 5.015842914581299, 207.7784423828125, 80.34512329101562, -71.89619445800781
563, 682812321, -1.8448020219802856, 6.809196949005127, 2.6252968311309814, 104.6772232055664, 66.61776733398438, -19.311304092407227
564, 682828988, -2.1654131412506104, 8.441963195800781, 1.405082106590271, 87.36656951904297, 39.76008224487305, 13.243491172790527
565, 682845655, -2.3236348628997803, 8.128571510314941, 1.913646936416626, 77.0979232788086, 26.40941047668457, 31.658695220947266
566, 682862322, -2.444597005844116, 8.624032974243164, 1.775283694267273, 92.54902648925781, 28.1676025390625, 37.96675491333008
567, 682878989, -3.0387940406799316, 9.69067096710205, 1.5319963693618774, 103.9825668334961, 32.29297637939453, 14.746109008789062
568, 682895656, -2.9358136653900146, 10.142210006713867, 0.862633228302002, 105.68035888671875, 25.683486938476562, -24.624553680419922
569, 682912323, -2.8080577850341797, 9.227970123291016, 1.061688780784607, 97.16654205322266, 21.421676635742188, -41.14514923095703
570, 682928990, -2.814483165740967, 8.47803020477295, 1.29341459274292, 78.2774887084961, 29.325336456298828, -31.935359954833984
571, 682945657, -2.844898223876953, 8.324746131896973, 0.7336424589157104, 55.43040084838867, 36.93563461303711, -10.61929702758789
572, 682962324, -2.935103178024292, 9.263489723205566, -0.0897265374660492, 25.983402252197266, 30.047019958496094, 1.8177498579025269
573, 682978991, -2.836472749710083, 9.47790813446045, -0.16774168610572815, 8.243356704711914, 12.120943069458008, -1.9963831901550293
574, 682995658, -2.886929512023926, 9.640695571899414, 0.46380317211151123, 4.1219611167907715, 2.813075304031372, -5.942723751068115
575, 683012325, -2.9838178157806396, 9.307262420654297, 0.9783976674079895, -7.075592994689941, 7.808379173278809, -13.685072898864746
576, 683028992, -3.005399227142334, 9.482958793640137, 0.5333282947540283, -20.5777645111084, 17.12558937072754, -11.244430541992188
577, 683045659, -3.0995256900787354, 9.682190895080566, 0.03861066699028015, -15.174630165100098, 15.059700012207031, -16.390596389770508
578, 683062326, -3.1025452613830566, 9.045184135437012, 0.28180113434791565, -12.136456489562988, 10.55510425567627, -22.32168197631836
579, 683078993, -3.0253422260284424, 8.555578231811523, 0.6346070766448975, -25.966562271118164, 11.222587585449219, -17.7871150970459
580, 683095660, -3.1005473136901855, 8.439974784851074, 1.0838522911071777, -56.47626495361328, 9.514483451843262, -11.976810455322266
581, 683112327, -3.1652448177337646, 8.28615951538086, 1.4880059957504272, -103.51416778564453, 13.09204387664795, -4.525784015655518
582, 683128994, -3.391429901123047, 8.400397300720215, 1.907669186592102, -149.20867919921875, 24.917518615722656, 4.554535865783691
583, 683145661, -3.4325110912323, 8.53954792022705, 2.1993086338043213, -198.56460571289062, 40.52162551879883, 9.633148193359375
584, 683162328, -3.5038509368896484, 8.6273832321167, 2.922874689102173, -253.16932678222656, 52.0132942199707, 8.000200271606445
585, 683178995, -3.525834321975708, 8.164421081542969, 4.024900913238525, -337.90338134765625, 65.12887573242188, -3.1979916095733643
586, 683195662, -3.1133337020874023, 7.722813606262207, 4.546241283416748, -417.30902099609375, 75.64833068847656, -0.8417956233024597
587, 683212329, -2.9744603633880615, 7.34097957611084, 4.91621732711792, -467.98944091796875, 76.1407699584961, 9.04492473602295
588, 683228996, -2.9729714393615723, 7.107733726501465, 5.453701019287109, -488.2584228515625, 58.0742301940918, 16.498498916625977
589, 683245663, -3.456498861312866, 6.554403781890869, 6.288043022155762, -522.04931640625, 43.71703338623047, 8.950201034545898
590, 683262330, -3.4208474159240723, 5.443496227264404, 6.771060943603516, -550.9762573242188, 34.62120056152344, 3.1644997596740723
591, 683278997, -3.52683687210083, 4.330336570739746, 6.995558738708496, -528.6905517578125, 21.699663162231445, 11.098549842834473
592, 683295664, -3.7520313262939453, 3.520880937576294, 7.046234607696533, -431.5120544433594, -0.9557904005050659, 21.40839385986328
593, 683312331, -3.9726693630218506, 3.007319450378418, 7.841782569885254, -321.63665771484375, -20.384183883666992, 11.856119155883789
594, 683328998, -4.053404331207275, 2.3753530979156494, 7.99375057220459, -184.12184143066406, -29.879573822021484, -12.307252883911133
595, 683345665, -4.082815170288086, 1.3242371082305908, 9.032835006713867, -78.00978088378906, -21.375518798828125, -36.8079719543457
596, 683362332, -3.6853437423706055, -0.04141239821910858, 9.029911041259766, -45.762672424316406, -1.578545093536377, -42.460330963134766
597, 683378999, -3.4937081336975098, -0.9174176454544067, 8.712187767028809, -59.830955505371094, 11.014219284057617, -22.346370697021484
598, 683395666, -3.479531764984131, -0.9724632501602173, 8.612619400024414, -99.20233917236328, 9.177448272705078, -0.44936493039131165
599, 683412333, -3.659280776977539, -0.7860215902328491, 8.639100074768066, -145.71934509277344, 2.9442343711853027, 6.81507682800293
600, 683429000, -3.581987142562866, -0.808090090751648, 8.272065162658691, -160.1685028076172, -4.158374309539795, 1.2592854499816895
601, 683445667, -3.757467269897461, -0.8281822800636292, 8.318865776062012, -101.7975082397461, -10.948528289794922, -6.74561071395874
602, 683462334, -3.7016239166259766, -1.2711824178695679, 8.487735748291016, -83.76083374023438, -3.728754758834839, -18.64718246459961
603, 683479001, -3.6142160892486572, -1.8540520668029785, 8.094110488891602, -66.75118255615234, 4.0421671867370605, -15.285439491271973
604, 683495668, -3.614694118499756, -2.1508893966674805, 8.235724449157715, -64.67113494873047, 5.554164886474609, -4.380630970001221
605, 683512335, -3.633258819580078, -2.2390329837799072, 8.020465850830078, -76.04515838623047, 4.528398036956787, -0.4767645001411438
606, 683529002, -3.7131731510162354, -2.2957770824432373, 7.9779558181762695, -66.56236267089844, -2.2302095890045166, -3.9897141456604004
607, 683545669, -3.695603370666504, -2.4336557388305664, 8.104826927185059, -53.17698669433594, -4.890589714050293, -6.661533832550049
608, 683562336, -3.733147144317627, -2.5332534313201904, 8.334851264953613, -40.654361724853516, -2.22123646736145, -6.685762405395508
609, 683579003, -3.719850540161133, -2.710569381713867, 8.009007453918457, -36.51775360107422, 0.3776035010814667, -6.500214576721191
610, 683595670, -3.67598295211792, -2.7942636013031006, 7.996138572692871, -9.032590866088867, 0.815335750579834, -2.5367209911346436
611, 683612337, -3.6449458599090576, -2.823282241821289, 8.104474067687988, 6.2819952964782715, 4.863320350646973, 0.5780211091041565
612, 683629004, -3.5876874923706055, -2.8897900581359863, 7.947176933288574, -3.4731216430664062, 8.565177917480469, 1.5243979692459106
613, 683645671, -3.5708060264587402, -2.7353568077087402, 7.593074798583984, -7.044863700866699, 2.544487714767456, 2.4664714336395264
614, 683662338, -3.7031147480010986, -2.506969451904297, 7.888057708740234, -0.7393874526023865, -6.065190315246582, -2.2143588066101074
615, 683679005, -3.777207374572754, -2.4957075119018555, 8.188596725463867, 23.656526565551758, -6.804464817047119, -7.45400333404541
616, 683695672, -3.6790170669555664, -2.805067539215088, 8.565398216247559, 45.21916198730469, -1.761859655380249, -9.290936470031738
617, 683712339, -3.7330281734466553, -2.9055988788604736, 9.161107063293457, 43.179805755615234, 2.289668560028076, -4.905107498168945
618, 683729006, -3.923013687133789, -2.842308759689331, 10.076961517333984, 30.43088722229004, 2.215806484222412, -2.3192245960235596
619, 683745673, -4.167026519775391, -2.8058362007141113, 11.225500106811523, 25.261669158935547, 6.303524494171143, -1.451257348060608
620, 683762340, -4.02616548538208, -2.9218435287475586, 11.729681968688965, 18.80451774597168, 24.20646095275879, 5.610795021057129
621, 683779007, -4.115240573883057, -2.8830037117004395, 12.225300788879395, 19.319894790649414, 43.75387954711914, 13.307403564453125
622, 683795674, -4.122332572937012, -2.468529462814331, 12.860225677490234, 26.195140838623047, 72.0736083984375, 17.14143180847168
623, 683812341, -4.026425361633301, -2.4744739532470703, 13.215229988098145, 19.915014266967773, 100.18307495117188, 11.627344131469727
624, 683829008, -3.6868886947631836, -2.604018449783325, 12.755441665649414, 35.80582809448242, 128.993896484375, 19.426729202270508
625, 683845675, -3.436466693878174, -1.8505200147628784, 12.9217529296875, 52.18205261230469, 155.00770568847656, 6.573498725891113
626, 683862342, -3.026958703994751, -2.659243583679199, 12.164689064025879, 135.42181396484375, 207.6654815673828, 1.8297384977340698
627, 683879009, -2.7428343296051025, -3.240447521209717, 10.76966381072998, 117.6500473022461, 276.03656005859375, 4.338727951049805
628, 683895676, -2.8467485904693604, -2.6270358562469482, 8.41724967956543, 46.44499969482422, 301.36419677734375, 3.272423028945923
629, 683912343, -2.862600326538086, -2.657414436340332, 6.129399299621582, 82.81526947021484, 298.2112121582031, 5.817591190338135
630, 683929010, -3.2390618324279785, -3.0263614654541016, 5.356938362121582, 75.52874755859375, 307.78216552734375, 32.1484375
631, 683945677, -3.7828352451324463, -2.2830402851104736, 1.6709564924240112, 3.820559024810791, 296.82855224609375, 43.444374084472656
632, 683962344, -4.605968952178955, -1.7547006607055664, -0.7414186000823975, -5.180490016937256, 255.45965576171875, 46.05266571044922
633, 683979011, -5.896646499633789, -1.2953095436096191, -1.4997026920318604, -5.072787761688232, 207.35528564453125, 45.71928405761719
634, 683995678, -7.437551975250244, -0.4331666827201843, -0.36228930950164795, 3.0109832286834717, 149.60284423828125, 47.26328659057617
635, 684012345, -8.736014366149902, 0.39124491810798645, 2.5108096599578857, 25.559288024902344, 108.75999450683594, 30.62575912475586
636, 684029012, -8.852389335632324, 0.3163219690322876, 3.4397363662719727, 18.130544662475586, 124.03190612792969, -0.9664014577865601
637, 684045679, -8.596243858337402, -0.517681360244751, 1.533530354499817, 2.745176315307617, 158.79867553710938, -2.8831064701080322
638, 684062346, -8.4450101852417, -0.7092639207839966, -0.07410198450088501, 19.24721336364746, 171.19979858398438, 24.98749351501465
639, 684079013, -8.271812438964844, -0.3804042935371399, -0.6137133836746216, 9.675093650817871, 158.9367218017578, 38.12266159057617
640, 684095680, -8.771021842956543, 0.22721004486083984, -1.39539635181427, -15.353007316589355, 138.33721923828125, 37.827430725097656
641, 684112347, -8.793610572814941, 0.4448930025100708, -1.232526183128357, -10.729130744934082, 121.31141662597656, 31.97891616821289
642, 684129014, -8.91392707824707, 0.13847383856773376, -1.6838303804397583, -6.490933418273926, 124.64490509033203, 27.773632049560547
643, 684145681, -9.002662658691406, 0.33935314416885376, -2.536475896835327, -25.88190269470215, 119.582763671875, 38.229496002197266
644, 684162348, -9.256725311279297, 1.120076298713684, -3.183152437210083, -11.15903091430664, 99.33842468261719, 41.67988204956055
645, 684179015, -9.485173225402832, 1.5121636390686035, -2.4193012714385986, 35.4407844543457, 77.87041473388672, 27.4846248626709
646, 684195682, -9.302555084228516, 0.7788447737693787, -2.072704553604126, 35.76997375488281, 74.31144714355469, 10.169500350952148
647, 684212349, -9.088072776794434, 0.18245816230773926, -2.7549896240234375, -0.6791280508041382, 74.67842102050781, 13.193573951721191
648, 684229016, -9.271830558776855, 0.746452271938324, -3.377236843109131, -40.54771423339844, 64.41915893554688, 26.97563934326172
649, 684245683, -9.456604957580566, 1.6071721315383911, -3.525437116622925, -25.419757843017578, 41.75294876098633, 24.2918701171875
650, 684262350, -9.685831069946289, 1.7674931287765503, -3.052161455154419, 21.998931884765625, 30.542423248291016, 5.78786563873291
651, 684279017, -9.485360145568848, 1.1043857336044312, -3.320526123046875, 22.9741153717041, 30.072261810302734, -4.333447456359863
652, 684295684, -9.092728614807129, 0.784310519695282, -4.09769344329834, 0.7655454874038696, 19.535186767578125, -2.0519258975982666
653, 684312351, -9.15548038482666, 0.9674665331840515, -4.077066421508789, -9.500317573547363, -8.017354965209961, -1.8985166549682617
654, 684329018, -9.43390941619873, 0.8335076570510864, -2.4230613708496094, 10.154829025268555, -20.784698486328125, -8.513076782226562
655, 684345685, -9.554155349731445, 0.2110573947429657, -1.8377774953842163, 18.057086944580078, -7.2267746925354, -3.77850604057312
656, 684362352, -9.45885944366455, 0.31955593824386597, -2.4097769260406494, -3.945099353790283, 2.9209306240081787, 6.672616004943848
657, 684379019, -9.456267356872559, 0.9202399253845215, -3.1138556003570557, -18.468353271484375, -11.191873550415039, 6.878270626068115
658, 684395686, -9.527189254760742, 1.2238798141479492, -3.049741268157959, -23.552526473999023, -24.84456443786621, -4.251328945159912
659, 684412353, -9.421520233154297, 0.9797113537788391, -2.96028995513916, -17.867408752441406, -36.646976470947266, -13.149658203125
660, 684429020, -9.150928497314453, 0.3357740044593811, -2.624176502227783, -5.732024192810059, -35.963722229003906, -14.03567886352539
661, 684445687, -8.761480331420898, 0.02189699001610279, -3.263509750366211, -31.91658592224121, -33.08571243286133, -5.397846221923828
662, 684462354, -8.386129379272461, 0.2615646421909332, -3.6309523582458496, -75.48442840576172, -31.291257858276367, 2.973595142364502
663, 684479021, -8.089932441711426, 0.30736756324768066, -4.114230632781982, -128.55442810058594, -10.929935455322266, 15.562243461608887
664, 684495688, -7.79586935043335, 0.5580633282661438, -5.630084991455078, -158.3677520751953, -27.526771545410156, 36.34027099609375
665, 684512355, -7.160699844360352, 1.5372660160064697, -6.291261196136475, -135.5380096435547, -67.49150085449219, 36.949737548828125
666, 684529022, -7.219439506530762, 2.4016501903533936, -5.1693830490112305, -50.525333404541016, -88.12579345703125, 21.535551071166992
667, 684545689, -8.072321891784668, 2.599487781524658, -4.781121253967285, -28.86705780029297, -117.63673400878906, -3.7005605697631836
668, 684562356, -8.198457717895508, 2.89237380027771, -4.250415802001953, 15.795425415039062, -196.02842712402344, -20.08124542236328
669, 684579023, -7.840378761291504, 2.7155354022979736, -0.7632031440734863, 23.21567153930664, -244.05393981933594, -48.84306335449219
670, 684595690, -7.875636577606201, 1.9690399169921875, 1.318355679512024, 17.474559783935547, -251.68197631835938, -72.06819915771484
671, 684612357, -7.3175787925720215, 0.9703930616378784, 2.3343400955200195, 38.68407440185547, -253.48594665527344, -87.9289779663086
672, 684629024, -6.233480453491211, -0.7028112411499023, 3.1851048469543457, 82.08185577392578, -244.53855895996094, -91.59149932861328
673, 684645691, -5.637304782867432, -1.9257566928863525, 4.104584693908691, 71.5855712890625, -229.3498077392578, -74.59617614746094
674, 684662358, -6.195827007293701, -1.9551721811294556, 4.607381343841553, 6.79584264755249, -241.48887634277344, -48.130855560302734
675, 684679025, -6.151936054229736, -1.2626395225524902, 5.512640476226807, -12.988632202148438, -277.75091552734375, -25.168153762817383
676, 684695692, -5.962672233581543, -0.8018243908882141, 7.531378746032715, -4.073904991149902, -281.4659118652344, -12.818926811218262
677, 684712359, -5.8414788246154785, -0.6332300305366516, 8.76976203918457, -25.68764877319336, -232.3517303466797, -18.368927001953125
678, 684729026, -5.345621109008789, -1.0171926021575928, 7.068729877471924, -65.33856201171875, -182.60736083984375, -39.41651153564453
679, 684745693, -4.8376851081848145, -1.1572484970092773, 5.2456536293029785, -82.22007751464844, -198.72459411621094, -44.31882858276367
680, 684762360, -5.064752101898193, -0.907467246055603, 7.619355201721191, -65.02274322509766, -241.04910278320312, -32.162994384765625
681, 684779027, -5.2785515785217285, -0.4128655791282654, 10.025113105773926, -40.532615661621094, -236.10488891601562, -21.50729751586914
682, 684795694, -5.169585704803467, -0.007801618427038193, 11.278656005859375, 10.409287452697754, -187.8144989013672, -22.728551864624023
683, 684812361, -4.335779190063477, -0.7915247082710266, 9.648723602294922, 23.557903289794922, -115.61042022705078, -32.48504638671875
684, 684829028, -2.766111135482788, -1.6754157543182373, 5.616119384765625, 16.092348098754883, -101.71956634521484, -33.14439392089844
685, 684845695, -1.7305407524108887, -2.170398473739624, 3.966698408126831, -10.982966423034668, -143.28668212890625, -27.88853645324707
686, 684862362, -1.6428428888320923, -1.6043357849121094, 4.0412492752075195, -49.64394760131836, -201.07432556152344, -18.008970260620117
687, 684879029, -1.72996985912323, -0.1407681256532669, 6.85296630859375, -55.194915771484375, -251.3464813232422, -16.051807403564453
688, 684895696, -1.728511929512024, 0.6587902307510376, 9.812427520751953, -12.9976806640625, -252.5810546875, -26.32535171508789
689, 684912363, -1.3178201913833618, 0.9907868504524231, 11.92546272277832, 27.84647560119629, -221.52804565429688, -40.35871124267578
690, 684929030, -0.4101467728614807, 0.817592978477478, 12.267816543579102, 41.36805725097656, -176.69927978515625, -66.90451049804688
691, 684945697, 0.8077570199966431, -0.4286508858203888, 10.84886646270752, 55.10677719116211, -151.85382080078125, -92.1304931640625
692, 684962364, 1.779470443725586, -1.6778242588043213, 10.75322151184082, 39.10386276245117, -160.97389221191406, -101.83760833740234
693, 684979031, 2.481318235397339, -2.386601686477661, 11.844656944274902, 32.25191879272461, -172.22073364257812, -89.89378356933594
694, 684995698, 2.7424569129943848, -2.414372205734253, 13.416054725646973, 31.159862518310547, -152.64178466796875, -71.27384948730469
695, 685012365, 2.6493053436279297, -2.5614278316497803, 14.314377784729004, 24.3551082611084, -101.93344116210938, -58.404544830322266
696, 685029032, 2.7685351371765137, -3.1083743572235107, 13.079185485839844, 12.872410774230957, -48.5750617980957, -40.51213073730469
697, 685045699, 2.8540303707122803, -3.105358123779297, 11.221487998962402, 3.6683225631713867, -26.20742416381836, -19.072237014770508
698, 685062366, 2.589944362640381, -2.3994028568267822, 10.27547550201416, -16.150779724121094, -21.19230842590332, -2.4075229167938232
699, 685079033, 2.2046637535095215, -1.3682979345321655, 9.530139923095703, -33.57162857055664, -24.627132415771484, 4.274574279785156
700, 685095700, 1.8060376644134521, -0.7227652072906494, 9.385306358337402, -34.21302795410156, -28.225427627563477, 3.1271722316741943
701, 685112367, 1.5957162380218506, -0.5850945711135864, 9.444652557373047, -31.530967712402344, -28.069698333740234, -0.8538559675216675
702, 685129034, 1.409942865371704, -0.6131690740585327, 9.846047401428223, -21.170612335205078, -30.43333625793457, -3.843024730682373
703, 685145701, 1.2503340244293213, -0.7137563824653625, 10.768412590026855, -4.761464595794678, -25.687223434448242, -8.196725845336914
704, 685162368, 1.2026833295822144, -0.9526881575584412, 11.18775463104248, -2.3778464794158936, -10.107394218444824, -11.062467575073242
705, 685179035, 1.513491153717041, -1.1632158756256104, 10.810014724731445, -6.125293254852295, 5.685760498046875, -8.514716148376465
706, 685195702, 1.7433090209960938, -1.1948084831237793, 10.380427360534668, -5.0467071533203125, 18.064245223999023, -7.208217144012451
707, 685212369, 1.773480772972107, -1.1662156581878662, 10.126883506774902, -7.565853595733643, 21.08667755126953, -9.901801109313965
708, 685229036, 1.9042631387710571, -1.6391068696975708, 10.315473556518555, -7.708071708679199, 22.475515365600586, -11.368366241455078
709, 685245703, 1.9247260093688965, -1.8026177883148193, 10.776091575622559, -17.681156158447266, 28.21539878845215, -3.8764586448669434
710, 685262370, 1.8645209074020386, -1.796676516532898, 10.903046607971191, -13.668885231018066, 41.36330795288086, 2.082319974899292
711, 685279037, 1.7528910636901855, -1.759232997894287, 11.088699340820312, -17.881155014038086, 50.12049865722656, 11.61894416809082
712, 685295704, 1.4762141704559326, -1.4768939018249512, 11.316394805908203, -18.255054473876953, 61.76982879638672, 15.40427303314209
713, 685312371, 1.2622641324996948, -1.3501085042953491, 11.399436950683594, 1.746490240097046, 82.90213775634766, 14.277331352233887
714, 685329038, 1.3328362703323364, -1.75978422164917, 10.776680946350098, 4.464879035949707, 110.04163360595703, 16.749919891357422
715, 685345705, 1.3375686407089233, -1.9609782695770264, 9.441912651062012, 1.4087964296340942, 122.07635498046875, 31.1289119720459
716, 685362372, 1.1123050451278687, -1.695380687713623, 8.639004707336426, -5.373822212219238, 111.78840637207031, 38.07536315917969
717, 685379039, 0.616020679473877, -1.4846704006195068, 8.403773307800293, -5.330440998077393, 97.15813446044922, 31.050207138061523
718, 685395706, -0.0035329237580299377, -1.406380295753479, 9.166607856750488, -4.65630578994751, 86.98158264160156, 24.974327087402344
719, 685412373, -0.4216710925102234, -1.4317137002944946, 10.21063232421875, -4.322101593017578, 85.88301849365234, 28.773237228393555
720, 685429040, -0.6262213587760925, -1.4212661981582642, 10.737039566040039, 2.645528554916382, 92.15145874023438, 31.82377815246582
721, 685445707, -0.6844425201416016, -1.298160195350647, 10.71894645690918, 18.98598861694336, 100.84237670898438, 35.272647857666016
722, 685462374, -0.5866588354110718, -1.2281941175460815, 10.614701271057129, 51.887413024902344, 110.18815612792969, 33.45109939575195
723, 685479041, -0.9417292475700378, -1.3802664279937744, 10.375536918640137, 55.2212028503418, 134.58273315429688, 24.883312225341797
724, 685495708, -0.7929813861846924, -1.8342560529708862, 9.586400985717773, 57.620357513427734, 144.7369384765625, 26.32076072692871
725, 685512375, -0.9999446868896484, -2.0187759399414062, 9.764711380004883, 40.0633544921875, 141.30967712402344, 28.54499053955078
726, 685529042, -1.4330227375030518, -1.8999980688095093, 9.537636756896973, 10.346203804016113, 140.09461975097656, 40.744300842285156
727, 685545709, -2.1552627086639404, -1.977031946182251, 10.22209644317627, 13.307382583618164, 147.50885009765625, 90.6270980834961
728, 685562376, -2.6488425731658936, 0.07924996316432953, 10.093395233154297, 11.119624137878418, 167.0387725830078, 79.11846160888672
729, 685579043, -3.223825216293335, -0.16871535778045654, 9.302919387817383, 37.23652648925781, 194.5818634033203, 57.855064392089844
730, 685595710, -2.878601551055908, -0.0353689007461071, 7.995398998260498, 4.161427021026611, 175.33721923828125, 5.4047770500183105
731, 685612377, -3.3821165561676025, -1.7165095806121826, 8.006675720214844, -12.135457992553711, 183.9680938720703, 3.432954788208008
732, 685629044, -3.1709799766540527, -1.8791698217391968, 5.728981971740723, -33.991512298583984, 183.31166076660156, 34.60062789916992
733, 685645711, -4.265959739685059, -0.71356201171875, 6.136264324188232, -30.400571823120117, 163.19378662109375, 66.16142272949219
734, 685662378, -5.473365306854248, 0.5071402192115784, 7.634464740753174, 0.3522616922855377, 167.81951904296875, 76.51127624511719
735, 685679045, -6.181510925292969, 0.004306592047214508, 8.653128623962402, 58.76881408691406, 215.36924743652344, 102.32791900634766
736, 685695712, -5.644591808319092, -0.060346171259880066, 7.778731822967529, 88.98322296142578, 257.9840087890625, 103.6524658203125
737, 685712379, -5.523263454437256, 0.062084391713142395, 5.692906379699707, 70.34555053710938, 288.61834716796875, 109.49661254882812
738, 685729046, -5.6421942710876465, 1.2742106914520264, 2.8721277713775635, 32.77861404418945, 293.1861877441406, 97.62967681884766
739, 685745713, -6.4720635414123535, 1.581705093383789, 2.369619369506836, 73.02062225341797, 270.9940185546875, 87.2557601928711
740, 685762380, -6.784567356109619, 1.3458375930786133, 2.2472031116485596, 23.846338272094727, 254.94041442871094, 68.51305389404297
741, 685779047, -7.121504783630371, 1.4225395917892456, 1.5205038785934448, 12.4769287109375, 243.09519958496094, 74.85226440429688
742, 685795714, -7.69152307510376, 2.2751073837280273, 1.4842047691345215, 28.270275115966797, 240.4053192138672, 80.61771392822266
743, 685812381, -7.473274230957031, 2.2803189754486084, 1.2980785369873047, 64.78298950195312, 254.8231658935547, 71.69233703613281
744, 685829048, -7.196641445159912, 2.1060631275177, 1.794281005859375, 53.848419189453125, 286.8781433105469, 75.44168090820312
745, 685845715, -6.625040531158447, 2.431278705596924, -1.3216749429702759, -62.51668167114258, 307.2773742675781, 64.66072845458984
746, 685862382, -6.6002349853515625, 2.9905614852905273, -4.433907508850098, -86.04359436035156, 282.00677490234375, 72.42028045654297
747, 685879049, -6.694851398468018, 4.38806676864624, -6.05963134765625, -49.534183502197266, 234.60263061523438, 72.0847396850586
748, 685895716, -6.971857070922852, 4.3419647216796875, -7.22799825668335, -0.03773210570216179, 173.65643310546875, 66.81031036376953
749, 685912383, -7.670553684234619, 5.197429656982422, -6.66615104675293, -16.19023323059082, 104.09709167480469, 46.281105041503906
750, 685929050, -7.974618911743164, 5.3566741943359375, -5.7214884757995605, 16.346525192260742, 53.44911193847656, 27.807300567626953
751, 685945717, -7.687297344207764, 4.747061252593994, -4.735775947570801, 24.653635025024414, 37.8657112121582, 10.606766700744629
752, 685962384, -7.579270362854004, 4.646703243255615, -5.376217842102051, 0.9701160192489624, 28.947298049926758, -5.970799922943115
753, 685979051, -7.778934001922607, 4.181077003479004, -5.33235502243042, -1.3574612140655518, 1.162247657775879, -15.12837028503418
754, 685995718, -8.123043060302734, 3.24889874458313, -3.616807460784912, -3.348428726196289, -12.221330642700195, -12.541797637939453
755, 686012385, -8.211738586425781, 3.2320172786712646, -3.0549521446228027, -25.1542911529541, -3.157066822052002, -6.571183681488037
756, 686029052, -8.155852317810059, 3.6943094730377197, -3.9707577228546143, -44.68367004394531, -8.089985847473145, -10.652568817138672
757, 686045719, -8.421095848083496, 3.7831318378448486, -3.927664279937744, -47.011680603027344, -23.606678009033203, -15.177706718444824
758, 686062386, -8.56906795501709, 3.7813329696655273, -3.322171926498413, -25.398216247558594, -33.90147399902344, -13.174942970275879
759, 686079053, -8.543510437011719, 3.916775703430176, -3.3848578929901123, -15.448678970336914, -33.48490905761719, -14.31287670135498
760, 686095720, -8.07628059387207, 3.744884967803955, -3.766477584838867, -8.68249225616455, -36.77715301513672, -20.255205154418945
761, 686112387, -7.579531669616699, 3.729736566543579, -4.562343120574951, -29.709455490112305, -51.377689361572266, -28.63524627685547
762, 686129054, -7.181293487548828, 4.104062557220459, -4.608352184295654, -63.985870361328125, -75.38361358642578, -40.01222610473633
763, 686145721, -7.823752403259277, 4.616323471069336, -4.621531009674072, -101.76210021972656, -106.46144104003906, -56.38859939575195
764, 686162388, -8.106338500976562, 4.486722469329834, -3.2435457706451416, -90.2913818359375, -140.10609436035156, -70.3238525390625
765, 686179055, -8.613127708435059, 4.151801586151123, -2.0623788833618164, -78.6961669921875, -151.28086853027344, -94.42887115478516
766, 686195722, -8.5390625, 3.9970269203186035, -1.3224601745605469, -44.782779693603516, -146.5102996826172, -129.11631774902344
767, 686212389, -8.020735740661621, 2.909379243850708, -1.060025930404663, -41.38871383666992, -135.5883026123047, -158.27049255371094
768, 686229056, -7.049266815185547, 1.4621931314468384, -2.084719181060791, -15.39876937866211, -136.03529357910156, -160.30848693847656
769, 686245723, -6.420868873596191, 0.3490891754627228, -1.8400180339813232, 1.9747562408447266, -150.248046875, -142.67897033691406
770, 686262390, -6.36005163192749, -0.13934117555618286, -1.321251630783081, -15.185271263122559, -168.95164489746094, -105.72075653076172
771, 686279057, -6.794591426849365, -0.04112813249230385, -0.24883301556110382, -14.573115348815918, -194.0634002685547, -72.449951171875
772, 686295724, -6.673861026763916, 0.24168255925178528, 1.1176645755767822, -2.9060282707214355, -198.1708984375, -60.90278244018555
773, 686312391, -5.958892345428467, 0.5160177946090698, 1.058746099472046, -8.970057487487793, -178.1656951904297, -74.66381072998047
774, 686329058, -5.404176712036133, 0.6721727252006531, 0.6900578737258911, -31.2405948638916, -171.5782012939453, -96.95069122314453
775, 686345725, -5.265316009521484, 0.23325170576572418, 0.43222862482070923, -1.0847524404525757, -212.31024169921875, -112.9525146484375
776, 686362392, -4.556494235992432, -0.17509114742279053, 2.459688663482666, 75.4731216430664, -271.4851989746094, -118.5594253540039
777, 686379059, -4.357640266418457, -0.8025619387626648, 5.779877662658691, 104.92704772949219, -288.2689208984375, -112.2639389038086
778, 686395726, -4.873281478881836, -1.5304814577102661, 8.3114595413208, 60.56449890136719, -291.08868408203125, -113.5085678100586
779, 686412393, -5.428589344024658, -1.533901572227478, 10.280319213867188, -5.218338489532471, -280.0466003417969, -114.60274505615234
780, 686429060, -5.974852085113525, -1.3149147033691406, 11.465767860412598, -16.66356086730957, -266.0929260253906, -124.61128234863281
781, 686445727, -5.441276550292969, -1.920629620552063, 12.487601280212402, 12.027931213378906, -228.68707275390625, -132.34527587890625
782, 686462394, -4.375537395477295, -2.7335398197174072, 11.690336227416992, 22.81992530822754, -172.26763916015625, -111.82361602783203
783, 686479061, -3.6782021522521973, -3.0682616233825684, 10.577474594116211, 46.57612991333008, -133.8851776123047, -74.45582580566406
784, 686495728, -3.5278303623199463, -3.0311927795410156, 10.572378158569336, 38.0357666015625, -119.54224395751953, -47.5844612121582
785, 686512395, -3.637070417404175, -2.370915174484253, 10.372824668884277, -7.897282600402832, -114.09484100341797, -42.195377349853516
786, 686529062, -4.066278457641602, -1.443155288696289, 10.461320877075195, -45.386878967285156, -117.94673919677734, -55.4371223449707
787, 686545729, -4.278666019439697, -1.1285114288330078, 10.380569458007812, -53.807769775390625, -127.51708221435547, -82.90889739990234
788, 686562396, -4.221825122833252, -2.08147931098938, 11.465750694274902, 11.232460975646973, -116.39837646484375, -86.43814849853516
789, 686579063, -3.6247825622558594, -3.0532586574554443, 11.974977493286133, 27.387136459350586, -95.0863037109375, -85.27008056640625
790, 686595730, -3.1244382858276367, -4.053010940551758, 11.894876480102539, 20.011199951171875, -61.3795280456543, -67.82489776611328
791, 686612397, -2.533440351486206, -4.350246906280518, 11.017271995544434, 6.494112014770508, -26.970340728759766, -34.38175964355469
792, 686629064, -2.0162270069122314, -3.9456005096435547, 9.916935920715332, -11.98897933959961, -5.229399681091309, -5.417422771453857
793, 686645731, -1.7488930225372314, -2.9716081619262695, 9.222268104553223, -52.140628814697266, -11.40934944152832, 12.75531005859375
794, 686662398, -2.4552767276763916, -1.963747262954712, 9.317201614379883, -50.4666862487793, -21.190603256225586, 16.137075424194336
795, 686679065, -2.87399959564209, -1.8683433532714844, 9.85416316986084, -11.835417747497559, -17.155838012695312, -2.15631103515625
796, 686695732, -2.9293646812438965, -2.5028979778289795, 9.966382026672363, -1.105329155921936, -1.5420514345169067, -9.241666793823242
797, 686712399, -2.6605262756347656, -2.9146437644958496, 9.690080642700195, 0.23493891954421997, 8.09326171875, 2.9774577617645264
798, 686729066, -2.7887773513793945, -2.5915753841400146, 9.384284019470215, -7.235727310180664, 15.870635032653809, 13.16594123840332
799, 686745733, -2.7615528106689453, -2.149815559387207, 8.971380233764648, 0.4435296952724457, 20.327146530151367, 14.990730285644531
800, 686762400, -2.613053321838379, -2.1503982543945312, 8.663300514221191, 8.754724502563477, 22.44929313659668, 12.693840026855469
801, 686779067, -2.4857733249664307, -2.25740909576416, 8.441987991333008, 5.7266340255737305, 20.098297119140625, 12.762060165405273
802, 686795734, -2.388821601867676, -2.536041736602783, 8.594559669494629, 5.112320423126221, 14.517903327941895, 9.373893737792969
803, 686812401, -2.433774471282959, -2.8939671516418457, 8.882204055786133, 0.9155458807945251, 10.586344718933105, 9.238283157348633
804, 686829068, -2.7692978382110596, -2.7144999504089355, 9.130850791931152, -4.927070617675781, 11.037379264831543, 16.145801544189453
805, 686845735, -2.9434216022491455, -2.3338871002197266, 9.38356876373291, 6.795469760894775, 19.14212989807129, 19.018163681030273
806, 686862402, -2.884732246398926, -2.319377899169922, 9.160980224609375, 22.05819320678711, 30.25527000427246, 18.689590454101562
807, 686879069, -2.7996866703033447, -2.5430052280426025, 9.061698913574219, 24.295547485351562, 35.77724838256836, 19.2721004486084
808, 686895736, -2.7246344089508057, -2.7284598350524902, 8.814800262451172, 10.869514465332031, 33.999000549316406, 22.5365047454834
809, 686912403, -2.8679683208465576, -2.882242202758789, 9.053112030029297, 5.251581192016602, 28.399381637573242, 21.342639923095703
810, 686929070, -3.107344150543213, -3.0368447303771973, 9.482763290405273, 3.125408172607422, 24.481796264648438, 22.00372886657715
811, 686945737, -3.229942798614502, -3.276587724685669, 10.413797378540039, 14.251708984375, 21.90565299987793, 25.48212242126465
812, 686962404, -3.141284704208374, -3.2026207447052, 10.763258934020996, -2.510113000869751, 41.275367736816406, 40.93733215332031
813, 686979071, -2.597093343734741, -2.4175398349761963, 9.767848014831543, -32.69252395629883, 118.75696563720703, 74.03884887695312
814, 686995738, -3.3856725692749023, -1.7957640886306763, 7.349088191986084, 49.932342529296875, 134.4853057861328, 88.32538604736328
815, 687012405, -3.629080057144165, -1.1135839223861694, 8.731711387634277, 71.43514251708984, 127.24955749511719, 91.73584747314453
816, 687029072, -4.1897101402282715, -0.5665793418884277, 7.967687129974365, 3.5620198249816895, 134.95236206054688, 74.73680877685547
817, 687045739, -4.628268241882324, -0.6189168691635132, 6.65966272354126, 2.069096088409424, 129.47525024414062, 58.64414978027344
818, 687062406, -5.051458835601807, -0.8994117975234985, 6.790110111236572, 27.3459415435791, 117.856201171875, 48.96759033203125
819, 687079073, -5.373544216156006, -1.0159790515899658, 7.3450775146484375, 29.81247901916504, 115.67526245117188, 39.65833282470703
820, 687095740, -5.396258354187012, -1.0616599321365356, 7.255657196044922, 22.100561141967773, 122.22726440429688, 35.23233413696289
821, 687112407, -5.373010635375977, -1.0537830591201782, 6.487032890319824, 28.91927146911621, 121.53731536865234, 48.977787017822266
822, 687129074, -5.9065937995910645, -0.7126787304878235, 6.1439595222473145, 10.981961250305176, 109.0634536743164, 64.64812469482422
823, 687145741, -6.644783973693848, -0.1462206244468689, 6.356292724609375, -2.0054330825805664, 98.97978210449219, 65.60050964355469
824, 687162408, -7.086016654968262, 0.3734757602214813, 6.452927589416504, 11.757068634033203, 95.50006866455078, 50.62750244140625
825, 687179075, -7.384125709533691, 0.27348074316978455, 6.594045639038086, 11.099998474121094, 94.5308609008789, 34.982994079589844
826, 687195742, -7.3163323402404785, 0.12929098308086395, 6.312929153442383, 26.10161018371582, 98.47816467285156, 29.615697860717773
827, 687212409, -7.1966552734375, -0.08475339412689209, 5.629423141479492, 66.80289459228516, 98.72624969482422, 34.450050354003906
828, 687229076, -7.125929355621338, -0.1782626211643219, 5.810508728027344, 96.8830795288086, 103.67121124267578, 40.35570526123047
829, 687245743, -7.099710941314697, 0.026224467903375626, 5.177293300628662, 67.36627197265625, 104.79132843017578, 44.44904327392578
830, 687262410, -7.3457560539245605, 0.763961672782898, 4.239170551300049, 18.865930557250977, 91.77428436279297, 36.88169860839844
831, 687279077, -7.956969738006592, 1.316362977027893, 3.8270516395568848, 3.3535990715026855, 67.30738067626953, 19.476327896118164
832, 687295744, -8.08549976348877, 1.5195894241333008, 4.1898345947265625, -0.3277047574520111, 51.480716705322266, 4.554070472717285
833, 687312411, -8.055102348327637, 1.084905982017517, 4.1068949699401855, 7.125487804412842, 45.81620788574219, -1.4783889055252075
834, 687329078, -7.863636016845703, 0.7539576888084412, 3.6863670349121094, 9.07301139831543, 42.367523193359375, -0.27483248710632324
835, 687345745, -7.873185157775879, 0.6040873527526855, 3.9212756156921387, 26.07547378540039, 39.518978118896484, 5.202710151672363
836, 687362412, -7.947794437408447, 0.8725322484970093, 3.596503257751465, 12.722698211669922, 35.03227615356445, 4.5456109046936035
837, 687379079, -8.050031661987305, 1.0459070205688477, 3.4707672595977783, 6.058340072631836, 25.523399353027344, -1.9038350582122803
838, 687395746, -8.117152214050293, 0.8493704199790955, 3.7432360649108887, 5.016609191894531, 22.938003540039062, -6.682532787322998
839, 687412413, -8.125444412231445, 0.7234776020050049, 3.455775499343872, 1.5003492832183838, 21.018699645996094, -3.376065969467163
840, 687429080, -8.242902755737305, 0.996274471282959, 3.6204793453216553, -2.6024582386016846, 18.654909133911133, 0.9036106467247009
841, 687445747, -8.238385200500488, 1.0374020338058472, 3.3279314041137695, -8.570880889892578, 18.615690231323242, -3.3258910179138184
842, 687462414, -8.159300804138184, 0.9637020826339722, 2.919433116912842, -11.607033729553223, 11.170201301574707, -6.728270053863525
843, 687479081, -7.9877190589904785, 0.729749321937561, 2.9489705562591553, -0.06892378628253937, -0.1487201601266861, -7.786941051483154
844, 687495748, -8.144359588623047, 0.781660258769989, 2.7975668907165527, -3.2018468379974365, -14.98297119140625, -3.7345917224884033
845, 687512415, -8.387519836425781, 1.111539363861084, 3.467663288116455, 17.02202606201172, -21.082874298095703, -9.488265037536621
846, 687529082, -8.587109565734863, 0.7159253358840942, 4.141282558441162, 44.3084831237793, -19.2657470703125, -13.02751350402832
847, 687545749, -8.341537475585938, 0.4716830253601074, 4.0695013999938965, 42.883880615234375, -10.631229400634766, -11.74211311340332
848, 687562416, -8.035469055175781, 0.2684389352798462, 3.363440990447998, 38.57882308959961, -15.850837707519531, -1.9363322257995605
849, 687579083, -8.207093238830566, 0.6765058040618896, 3.169036388397217, 59.35029983520508, -31.840768814086914, 6.153414726257324
850, 687595750, -8.46839427947998, 1.2659666538238525, 3.415065050125122, 107.2245864868164, -47.533321380615234, 3.4463045597076416
851, 687612417, -8.54867935180664, 1.6997528076171875, 4.254092216491699, 169.69973754882812, -58.720420837402344, -6.328824043273926
852, 687629084, -8.172884941101074, 1.4896817207336426, 4.367711544036865, 204.68348693847656, -66.1634521484375, -6.161500453948975
853, 687645751, -7.99661111831665, 1.9177275896072388, 4.667080879211426, 224.18807983398438, -67.27871704101562, 2.764932155609131
854, 687662418, -7.887916088104248, 2.508256435394287, 5.0150556564331055, 236.357421875, -54.7684326171875, 5.767569541931152
855, 687679085, -8.10534381866455, 2.99074125289917, 4.8695292472839355, 268.1083679199219, -45.15766906738281, 18.867233276367188
856, 687695752, -7.938527584075928, 3.759376049041748, 4.041378974914551, 284.3091125488281, -42.389671325683594, 21.207731246948242
857, 687712419, -7.139181137084961, 4.345133304595947, 2.6065893173217773, 388.8948059082031, -48.196449279785156, 27.176977157592773
858, 687729086, -6.820458889007568, 5.33832311630249, 1.5193471908569336, 552.9779052734375, -58.69902801513672, 43.14101028442383
859, 687745753, -6.792964458465576, 7.484323024749756, 0.861250638961792, 734.0535278320312, -71.0032958984375, 52.44704818725586
860, 687762420, -7.5251922607421875, 7.3863420486450195, 4.467344760894775, 750.0162353515625, -74.99749755859375, 37.87738800048828
861, 687779087, -8.802244186401367, 5.790874004364014, 6.705646514892578, 351.3985900878906, -36.75861358642578, -9.373393058776855
862, 687795754, -7.7830729484558105, 5.3923845291137695, 2.1410975456237793, 86.55628967285156, 7.622475624084473, -12.475914001464844
863, 687812421, -7.52455472946167, 6.437182426452637, -0.4762732982635498, 30.883432388305664, -4.290474891662598, -2.6725661754608154
864, 687829088, -7.448585033416748, 6.40966272354126, 0.7352596521377563, 40.297664642333984, -12.81363296508789, -10.834911346435547
865, 687845755, -6.807610034942627, 5.247613430023193, 1.4268840551376343, 37.16575241088867, 2.7434730529785156, 3.7191426753997803
866, 687862422, -7.462885856628418, 6.07387113571167, 0.3916934132575989, -1.2489912509918213, 1.3011515140533447, 12.24738597869873
867, 687879089, -6.964603900909424, 5.529519081115723, 0.3639611005783081, -4.099146366119385, -4.2991814613342285, -0.9119274020195007
868, 687895756, -7.369631767272949, 5.059375762939453, 1.3476721048355103, -49.567684173583984, 4.669145107269287, 17.459280014038086
869, 687912423, -7.791030406951904, 6.540689468383789, 0.8090673685073853, -123.88102722167969, 7.61510705947876, 26.13937759399414
870, 687929090, -7.577652931213379, 7.012996196746826, 0.5463483333587646, -158.63206481933594, -1.536668300628662, 11.055867195129395
871, 687945757, -7.279109001159668, 6.243571758270264, 1.1350339651107788, -150.3225555419922, -5.312164783477783, 4.529205799102783
872, 687962424, -7.147387504577637, 5.509158134460449, 2.118886947631836, -179.19400024414062, -6.013328552246094, 9.105171203613281
873, 687979091, -6.710115909576416, 5.253121852874756, 2.708341121673584, -251.76622009277344, -12.181314468383789, 15.765790939331055
874, 687995758, -7.095606803894043, 5.4831414222717285, 3.5555710792541504, -340.5080261230469, -21.825105667114258, 15.422685623168945
875, 688012425, -7.335031509399414, 5.131645679473877, 4.873302459716797, -472.70233154296875, -17.951374053955078, 5.200169086456299
876, 688029092, -7.009022235870361, 4.243896484375, 6.413074970245361, -670.0261840820312, 6.802117824554443, -4.99332332611084
877, 688045759, -6.245758533477783, 4.233959197998047, 6.168802738189697, -864.3931274414062, 18.24485206604004, 2.9055562019348145
878, 688062426, -6.550867557525635, 4.591376304626465, 3.7155542373657227, -831.7759399414062, -10.424609184265137, 10.737687110900879
879, 688079093, -7.935704231262207, 4.543459892272949, 3.492882013320923, -493.650390625, -53.59549331665039, -7.134151458740234
880, 688095760, -7.841343402862549, 2.729698419570923, 5.889108180999756, -229.40057373046875, -38.16521453857422, -57.523921966552734
881, 688112427, -7.069258213043213, -0.6026690006256104, 6.207420349121094, -136.6455841064453, -4.174383640289307, -62.691009521484375
882, 688129094, -6.742879867553711, -1.977922797203064, 6.211663722991943, -125.95360565185547, 2.0192596912384033, -16.940996170043945
883, 688145761, -7.052594184875488, -1.1841747760772705, 6.78102445602417, -174.24493408203125, -1.0883104801177979, 6.645971298217773
884, 688162428, -7.030035018920898, -0.8016369938850403, 6.747379779815674, -243.0007781982422, 5.154251575469971, -3.346803665161133
