sep=,
DeviceTag:,15,,,,,,,,,,,,,,,,,
FirmwareVersion:,2.2.1,,,,,,,,,,,,,,,,,
AppVersion:,2023.0.0,,,,,,,,,,,,,,,,,
SyncStatus:,Un-synced,,,,,,,,,,,,,,,,,
OutputRate:,60Hz,,,,,,,,,,,,,,,,,
FilterProfile:,General,,,,,,,,,,,,,,,,,
Measurement Mode:,Inertial Mode - Rate quantities,,,,,,,,,,,,,,,,,
StartTime:,2023-07-21 13:45:48.613 +0900,,,,,,,,,,,,,,,,,
© Movella Technologies B. V. 2005-2023,,,,,,,,,,,,,,,,,,,

PacketCounter,SampleTimeFine,Acc_X,Acc_Y,Acc_Z,Gyr_X,Gyr_Y,Gyr_Z
1, 2724882833, 6.155880928039551, -3.488157033920288, 7.625337600708008, -166.00311279296875, -145.5573272705078, 49.1096305847168
2, 2724899500, 6.056467056274414, -4.244241714477539, 6.41896915435791, -186.26010131835938, -126.86988830566406, 64.16714477539062
3, 2724916167, 5.111241340637207, -3.538116216659546, 6.157734394073486, -31.31319808959961, 7.797133922576904, 104.43896484375
4, 2724932834, 3.4488794803619385, -2.423036575317383, 9.028955459594727, 89.31640625, 92.43624877929688, 81.47801971435547
5, 2724949501, 6.223360061645508, -2.966735363006592, 8.580050468444824, 73.13799285888672, 86.21173095703125, 33.29417419433594
6, 2724966168, 5.202363967895508, -3.9668755531311035, 8.094947814941406, 3.0096049308776855, 77.37005615234375, 20.538434982299805
7, 2724982835, 5.873722076416016, -4.1431169509887695, 6.324187278747559, -88.98100280761719, 56.03475570678711, 26.28799819946289
8, 2724999502, 5.137719631195068, -4.189084529876709, 6.009072303771973, -49.68397521972656, 56.450439453125, 47.9896354675293
9, 2725016169, 5.162562370300293, -3.496990442276001, 5.6822733879089355, -31.659399032592773, 21.179426193237305, 32.87831497192383
10, 2725032836, 4.1384406089782715, -3.215998411178589, 6.149302005767822, 51.91999053955078, 15.867743492126465, 10.008532524108887
11, 2725049503, 4.170490741729736, -3.4318997859954834, 6.896242141723633, 66.75849914550781, 23.371320724487305, -11.060504913330078
12, 2725066170, 4.479637622833252, -4.234530925750732, 6.742038249969482, 26.26112174987793, 19.670454025268555, -18.57316780090332
13, 2725082837, 4.8494133949279785, -4.831918239593506, 6.099008083343506, -11.008964538574219, 7.480716228485107, -11.948503494262695
14, 2725099504, 4.5592122077941895, -4.5003790855407715, 5.7841691970825195, 14.344141960144043, -15.353342056274414, -5.019726753234863
15, 2725116171, 4.3924970626831055, -3.608797550201416, 6.741033554077148, 101.32571411132812, -22.422100067138672, -7.640944480895996
16, 2725132838, 4.446617603302002, -2.9429867267608643, 8.417737007141113, 144.30833435058594, -15.779682159423828, -20.320837020874023
17, 2725149505, 4.445184230804443, -3.047489881515503, 9.11513614654541, 118.27555847167969, -4.240916728973389, -28.984373092651367
18, 2725166172, 4.185511112213135, -4.0031561851501465, 9.297971725463867, 63.23799133300781, 18.140920639038086, -8.867473602294922
19, 2725182839, 4.661856174468994, -4.276937007904053, 9.537808418273926, -15.982386589050293, 35.4817008972168, 30.894683837890625
20, 2725199506, 4.493992328643799, -3.4088544845581055, 8.891956329345703, -84.76406860351562, 47.15494918823242, 48.14686584472656
21, 2725216173, 4.320971488952637, -3.3014237880706787, 7.918062210083008, -126.52962493896484, 46.903079986572266, 44.63344192504883
22, 2725232840, 3.6438450813293457, -3.469282627105713, 6.63255500793457, -128.46595764160156, 45.16197204589844, 41.37470626831055
23, 2725249507, 3.2001333236694336, -3.2911767959594727, 5.135800838470459, -90.88982391357422, 51.69992446899414, 36.28020477294922
24, 2725266174, 3.569689989089966, -3.056853771209717, 3.716975212097168, 7.6126179695129395, 32.22834014892578, 9.103475570678711
25, 2725282841, 3.8449506759643555, -3.310415744781494, 4.598026752471924, 120.411865234375, -6.373957633972168, -8.647047996520996
26, 2725299508, 4.16813325881958, -3.7459774017333984, 7.502105712890625, 113.52761840820312, -45.34524154663086, -15.869464874267578
27, 2725316175, 3.727750778198242, -3.6209001541137695, 8.866985321044922, 100.53497314453125, -29.39177703857422, -12.07497787475586
28, 2725332842, 3.8628172874450684, -3.6399474143981934, 9.318022727966309, 49.853214263916016, -17.582950592041016, -8.715052604675293
29, 2725349509, 3.9345381259918213, -3.6019833087921143, 9.059679985046387, 16.94817543029785, -0.20695079863071442, -1.5357517004013062
30, 2725366176, 4.231074333190918, -3.3969602584838867, 8.96304702758789, 13.222344398498535, 10.232468605041504, 5.523684978485107
31, 2725382843, 3.814387321472168, -3.4361555576324463, 8.456183433532715, 16.053829193115234, 22.447933197021484, 10.865306854248047
32, 2725399510, 3.919816255569458, -3.0141096115112305, 8.190921783447266, 19.85623550415039, 31.426111221313477, 16.11941146850586
33, 2725416177, 3.5451743602752686, -2.6664175987243652, 6.745384693145752, 26.090877532958984, 28.20345115661621, 12.993915557861328
34, 2725432844, 3.721116781234741, -2.4243175983428955, 6.517665386199951, 80.40586853027344, 14.348419189453125, 12.347917556762695
35, 2725449511, 2.8016655445098877, -2.2714972496032715, 6.090901851654053, 165.72525024414062, 24.679885864257812, 17.269506454467773
36, 2725466178, 3.493377923965454, -1.91887629032135, 7.877121925354004, 210.18556213378906, 27.4769344329834, 11.226720809936523
37, 2725482845, 3.822007894515991, -2.224438428878784, 8.72751522064209, 160.4589385986328, 21.82693862915039, 4.918394088745117
38, 2725499512, 3.7625951766967773, -2.4513235092163086, 9.444169044494629, 93.50000762939453, 15.512216567993164, 16.220186233520508
39, 2725516179, 3.6253581047058105, -1.6584508419036865, 9.599222183227539, 51.43644714355469, 17.49043083190918, 34.473960876464844
40, 2725532846, 2.8031179904937744, -0.5659793019294739, 8.613261222839355, 42.25227355957031, 22.801376342773438, 26.436779022216797
41, 2725549513, 3.0831501483917236, -1.1456960439682007, 7.571589946746826, 41.317657470703125, 16.55636978149414, 12.461816787719727
42, 2725566180, 3.3341434001922607, -1.0252392292022705, 7.075967788696289, 46.64495086669922, -2.159334897994995, 13.438013076782227
43, 2725582847, 3.1514017581939697, -0.5919535756111145, 7.603267669677734, 72.26911163330078, -20.64746856689453, 10.711479187011719
44, 2725599514, 3.314499855041504, -0.5200225114822388, 9.420364379882812, 77.21495056152344, -29.010000228881836, 3.6152358055114746
45, 2725616181, 3.5050244331359863, -0.5635185241699219, 10.373892784118652, 50.52910232543945, -24.246353149414062, 5.313573837280273
46, 2725632848, 3.287381649017334, -0.2118549942970276, 10.217174530029297, 19.008398056030273, -4.5385260581970215, 8.166231155395508
47, 2725649515, 3.383023738861084, 0.023863686248660088, 9.294111251831055, 1.4549487829208374, 5.532952308654785, 1.802449107170105
48, 2725666182, 3.538296937942505, -0.3498701751232147, 8.811311721801758, -4.964266300201416, 1.4021481275558472, -2.3192555904388428
49, 2725682849, 3.187812328338623, -0.0793941542506218, 9.036717414855957, -6.2101216316223145, -2.1860575675964355, -8.077582359313965
50, 2725699516, 3.221221923828125, 0.24580109119415283, 9.0723876953125, -12.792659759521484, -1.0891844034194946, -31.002670288085938
51, 2725716183, 3.376976728439331, -0.050808101892471313, 9.129454612731934, -15.264021873474121, -4.12146520614624, -47.58527755737305
52, 2725732850, 3.8950979709625244, -0.2757818400859833, 8.786234855651855, -28.51165771484375, -12.848065376281738, -53.402130126953125
53, 2725749517, 4.313124656677246, -0.7930887937545776, 8.636308670043945, -70.95681762695312, -35.30657958984375, -42.265995025634766
54, 2725766184, 4.641421318054199, -1.0647975206375122, 9.043620109558105, -124.9444351196289, -50.41142654418945, -18.103979110717773
55, 2725782851, 4.350664138793945, -1.4181278944015503, 9.633807182312012, -193.9290771484375, -57.891448974609375, 4.453264236450195
56, 2725799518, 3.321502685546875, -1.9423834085464478, 11.001462936401367, -249.6220245361328, -12.878287315368652, 15.536455154418945
57, 2725816185, 3.2336630821228027, -2.445263385772705, 9.845855712890625, -305.40435791015625, 44.51780319213867, 15.800333023071289
58, 2725832852, 3.561786651611328, -2.4019558429718018, 7.447863578796387, -289.28240966796875, 61.47402572631836, 21.462303161621094
59, 2725849519, 3.3963816165924072, -2.6429429054260254, 5.998269081115723, -231.12928771972656, 47.96805191040039, 1.2729514837265015
60, 2725866186, 3.458416700363159, -4.184098243713379, 6.072779655456543, -175.44105529785156, 23.026302337646484, -2.566816568374634
61, 2725882853, 3.4612374305725098, -4.585694789886475, 6.958979606628418, -166.68157958984375, 1.5670043230056763, 6.240320682525635
62, 2725899520, 3.0663692951202393, -4.876523971557617, 7.386239528656006, -181.58692932128906, -1.0675591230392456, 5.2211480140686035
63, 2725916187, 3.072770357131958, -5.2903666496276855, 7.314326286315918, -190.53158569335938, 4.768677711486816, 8.133695602416992
64, 2725932854, 3.3142902851104736, -5.862945079803467, 7.244781970977783, -215.2702178955078, 10.789997100830078, 7.428804874420166
65, 2725949521, 3.5450727939605713, -6.133857727050781, 7.110219478607178, -246.3918914794922, 15.96402359008789, 9.590840339660645
66, 2725966188, 3.5499677658081055, -6.740330219268799, 6.262251853942871, -312.7711486816406, 12.311739921569824, 6.754181385040283
67, 2725982855, 3.1547346115112305, -7.000153064727783, 5.0406494140625, -320.2533264160156, 16.537954330444336, 7.883305549621582
68, 2725999522, 2.7179818153381348, -7.3013410568237305, 4.441632270812988, -303.3592529296875, 25.99982452392578, 3.9381961822509766
69, 2726016189, 3.13319993019104, -7.984164714813232, 3.7924630641937256, -293.6253356933594, 42.255558013916016, 5.51245641708374
70, 2726032856, 3.1548984050750732, -8.076266288757324, 3.1515204906463623, -298.9891052246094, 39.70683670043945, 7.721806526184082
71, 2726049523, 3.0199267864227295, -8.19028377532959, 2.868263006210327, -331.63037109375, 34.82164001464844, 4.820425987243652
72, 2726066190, 2.7264397144317627, -8.426841735839844, 2.232417106628418, -378.0350341796875, 42.66721725463867, 3.878633975982666
73, 2726082857, 2.890040636062622, -8.5021390914917, 0.14712011814117432, -384.5949401855469, 57.147674560546875, 6.519903659820557
74, 2726099524, 3.109508991241455, -8.509193420410156, -2.4600424766540527, -338.4073486328125, 57.355003356933594, 7.023237228393555
75, 2726116191, 3.3813846111297607, -8.221589088439941, -3.949887990951538, -254.346923828125, 40.58799362182617, 2.1261658668518066
76, 2726132858, 3.246964693069458, -8.403553009033203, -5.04162073135376, -136.387451171875, 22.43675422668457, -3.632599353790283
77, 2726149525, 3.0049962997436523, -8.966314315795898, -4.080725193023682, -36.52227020263672, -5.706076145172119, -4.42291259765625
78, 2726166192, 2.928987741470337, -8.995940208435059, -2.028843879699707, -8.097652435302734, -10.297822952270508, -0.895074725151062
79, 2726182859, 2.813084840774536, -9.099404335021973, -1.4541198015213013, -28.885038375854492, 1.6255724430084229, -2.2835068702697754
80, 2726199526, 3.018911361694336, -9.124287605285645, -2.1980245113372803, -51.83011245727539, 10.94515323638916, -4.350399494171143
81, 2726216193, 3.109654664993286, -8.899755477905273, -3.3136818408966064, -41.97385787963867, 11.570735931396484, -2.7664077281951904
82, 2726232860, 3.18428897857666, -8.561059951782227, -4.155964374542236, 7.49837064743042, 6.5746989250183105, -1.5002771615982056
83, 2726249527, 2.598820924758911, -8.65581226348877, -4.101619243621826, 87.87252807617188, 8.157452583312988, -5.420040130615234
84, 2726266194, 2.9561030864715576, -9.119096755981445, -4.141915798187256, 184.6641387939453, 15.920337677001953, -11.340210914611816
85, 2726282861, 2.8547983169555664, -8.956642150878906, -4.188282012939453, 305.48052978515625, 16.246931076049805, -4.312795639038086
86, 2726299528, 3.3076231479644775, -8.09168815612793, -3.1917407512664795, 436.0081481933594, -0.37640029191970825, -1.0702776908874512
87, 2726316195, 3.7058589458465576, -6.740480422973633, -0.7924739122390747, 520.4943237304688, -31.49845314025879, -1.2834018468856812
88, 2726332862, 3.5398313999176025, -6.306961536407471, 1.534622311592102, 555.56396484375, -54.70107650756836, -7.878848552703857
89, 2726349529, 2.6990303993225098, -6.215787410736084, 3.7485861778259277, 586.4955444335938, -52.81494140625, -14.019184112548828
90, 2726366196, 2.542546510696411, -5.225878715515137, 6.702139854431152, 582.6621704101562, -39.73528289794922, -20.5717830657959
91, 2726382863, 3.1998958587646484, -5.152047157287598, 9.417972564697266, 459.2113952636719, -28.52776527404785, -39.90300369262695
92, 2726399530, 3.839556932449341, -5.901913642883301, 10.20392894744873, 314.1802978515625, -9.022726058959961, -43.062110900878906
93, 2726416197, 3.7661752700805664, -5.739866256713867, 10.143762588500977, 172.35899353027344, 12.641161918640137, -32.687171936035156
94, 2726432864, 3.709622859954834, -5.139926433563232, 8.82386302947998, 81.05464172363281, 29.66167449951172, -24.8875675201416
95, 2726449531, 3.811211347579956, -4.734912395477295, 7.525522232055664, 52.47798156738281, 32.496185302734375, -18.831565856933594
96, 2726466198, 3.8986878395080566, -4.484781265258789, 6.946627616882324, 58.46763610839844, 22.954988479614258, -11.339967727661133
97, 2726482865, 3.804159641265869, -4.302396774291992, 6.9689412117004395, 58.16885757446289, 9.09837532043457, -5.869964599609375
98, 2726499532, 3.5633885860443115, -3.984734058380127, 7.083670616149902, 68.76795959472656, 0.7770830988883972, -4.923560619354248
99, 2726516199, 3.5658011436462402, -4.0315022468566895, 7.676258563995361, 72.50542449951172, -2.488691806793213, -5.109060764312744
100, 2726532866, 3.4849884510040283, -3.985776662826538, 8.13392448425293, 51.159332275390625, -4.877498149871826, -5.039832592010498
101, 2726549533, 3.656393051147461, -4.067845821380615, 7.9538397789001465, 26.16752815246582, -4.346664905548096, -2.3759424686431885
102, 2726566200, 3.435953378677368, -3.6994261741638184, 7.957714080810547, 17.519548416137695, -3.3420770168304443, 0.4627387523651123
103, 2726582867, 3.571378231048584, -3.7102320194244385, 7.792552471160889, 2.8369078636169434, -1.7894188165664673, -1.814711332321167
104, 2726599534, 3.4544878005981445, -3.7375967502593994, 7.547219753265381, 8.663249015808105, -0.5768109560012817, -0.0873265266418457
105, 2726616201, 3.51924991607666, -3.6004045009613037, 7.706637382507324, 15.056904792785645, 0.0052057853899896145, -0.9292295575141907
106, 2726632868, 3.515964984893799, -3.69561767578125, 7.691634178161621, 13.318194389343262, -0.4024525582790375, -0.18550008535385132
107, 2726649535, 3.557579755783081, -3.5980803966522217, 7.672166347503662, 12.89188289642334, -2.4341554641723633, -0.09720024466514587
108, 2726666202, 3.5871729850769043, -3.6315999031066895, 7.765741348266602, 13.956849098205566, -5.478854656219482, 0.22702471911907196
109, 2726682869, 3.461888551712036, -3.6275322437286377, 7.889769554138184, 17.823793411254883, -5.991714954376221, 2.6721959114074707
110, 2726699536, 3.4786295890808105, -3.4375174045562744, 8.124615669250488, 19.06159019470215, -2.9723191261291504, 1.170034408569336
111, 2726716203, 3.715057611465454, -3.4557249546051025, 7.945032119750977, 9.675989151000977, -2.3761422634124756, -1.2650501728057861
112, 2726732870, 3.6710877418518066, -3.3969671726226807, 7.843661308288574, 12.434170722961426, -3.8204305171966553, 0.5296644568443298
113, 2726749537, 3.5961625576019287, -3.330294132232666, 8.031993865966797, 15.445965766906738, -2.725334644317627, 1.6844017505645752
114, 2726766204, 3.55336856842041, -3.3920516967773438, 8.113338470458984, 16.630287170410156, 1.9255584478378296, 3.8313629627227783
115, 2726782871, 3.4538426399230957, -3.447725534439087, 8.165364265441895, 13.526212692260742, 7.540712356567383, 6.239867687225342
116, 2726799538, 3.41798996925354, -3.3266663551330566, 7.952073574066162, 1.651513695716858, 8.731122016906738, 1.958776593208313
117, 2726816205, 3.63331937789917, -3.2873528003692627, 7.4921875, 4.988578796386719, 4.124841690063477, -1.2056536674499512
118, 2726832872, 3.7059555053710938, -3.2382006645202637, 7.504820346832275, 13.132940292358398, -2.5818769931793213, -3.1268515586853027
119, 2726849539, 3.743140935897827, -3.2111129760742188, 7.711323261260986, 21.65326690673828, -9.926669120788574, -3.633603811264038
120, 2726866206, 3.6391396522521973, -3.1810882091522217, 8.337913513183594, 27.105121612548828, -10.055511474609375, -1.8920798301696777
121, 2726882873, 3.719512462615967, -3.4226300716400146, 8.409052848815918, 18.385108947753906, -4.806601047515869, 3.1012985706329346
122, 2726899540, 3.5154709815979004, -2.802880048751831, 8.584676742553711, 6.709779262542725, -1.9618817567825317, 3.2359282970428467
123, 2726916207, 3.5930800437927246, -3.2114644050598145, 8.259767532348633, -11.460241317749023, 1.9396698474884033, -1.5493640899658203
124, 2726932874, 3.510417938232422, -3.1534507274627686, 7.6925859451293945, -15.805083274841309, -0.42942285537719727, 0.21552462875843048
125, 2726949541, 3.5910935401916504, -2.9323301315307617, 7.550259113311768, 7.8149566650390625, -4.146671772003174, -1.4698237180709839
126, 2726966208, 3.6448874473571777, -3.1817870140075684, 8.130987167358398, 14.40148639678955, -3.2253971099853516, -2.289597511291504
127, 2726982875, 3.6562142372131348, -3.090294122695923, 8.099905014038086, -1.2997804880142212, -2.029435157775879, -2.2984964847564697
128, 2726999542, 3.645780563354492, -2.9951062202453613, 7.875584125518799, -0.5174918174743652, -1.8438966274261475, -3.0724740028381348
129, 2727016209, 3.7103219032287598, -3.08474063873291, 7.814113140106201, -1.2859113216400146, -2.820713996887207, -3.57240891456604
130, 2727032876, 3.5301096439361572, -3.042978286743164, 7.475460052490234, 5.572882652282715, -5.968593120574951, -0.9268213510513306
131, 2727049543, 3.58610200881958, -2.6493430137634277, 7.6702680587768555, 9.986729621887207, -8.461036682128906, -11.42198371887207
132, 2727066210, 3.55122447013855, -2.710949420928955, 7.2813520431518555, 36.057220458984375, -13.961515426635742, -14.195693969726562
133, 2727082877, 3.788309097290039, -2.2337841987609863, 8.044898986816406, 56.87653350830078, -16.40976333618164, -22.342296600341797
134, 2727099544, 3.770151376724243, -2.186554431915283, 8.069916725158691, 42.76640701293945, -17.272951126098633, -32.177433013916016
135, 2727116211, 3.877715587615967, -2.0978169441223145, 7.609872817993164, 25.18160057067871, -20.175432205200195, -39.002357482910156
136, 2727132878, 3.9916534423828125, -1.667162537574768, 6.986473560333252, 32.8948860168457, -25.925289154052734, -43.68629837036133
137, 2727149545, 4.2876505851745605, -1.6505911350250244, 7.077267646789551, 56.9328727722168, -34.66516876220703, -47.82077407836914
138, 2727166212, 4.459231853485107, -1.416712999343872, 7.726123332977295, 78.6494140625, -45.995513916015625, -49.162601470947266
139, 2727182879, 5.585533618927002, -1.3852120637893677, 8.43976879119873, 74.3565902709961, -50.57160186767578, -51.62268829345703
140, 2727199546, 4.303184509277344, -2.1657915115356445, 9.077012062072754, 12.19495677947998, -53.338253021240234, -34.654239654541016
141, 2727216213, 4.187170505523682, -1.8001441955566406, 8.998623847961426, -0.9375578761100769, -30.937461853027344, -24.147554397583008
142, 2727232880, 4.881118297576904, -1.7860718965530396, 8.806788444519043, -33.67674255371094, -15.985445022583008, -23.88874626159668
143, 2727249547, 4.547749996185303, -2.2817704677581787, 8.213730812072754, -67.85762023925781, -16.52845001220703, -13.014633178710938
144, 2727266214, 4.360141277313232, -2.438286781311035, 7.619912147521973, -98.29759979248047, -21.097143173217773, 7.243422508239746
145, 2727282881, 5.117792129516602, -2.1703200340270996, 7.1320977210998535, -135.97943115234375, -31.39348602294922, 26.39084815979004
146, 2727299548, 4.423513889312744, -1.43341064453125, 6.747770309448242, -140.3095245361328, -32.69342803955078, 27.338590621948242
147, 2727316215, 4.257173538208008, -1.1304556131362915, 6.210618019104004, -115.17952728271484, -25.242450714111328, 3.1171607971191406
148, 2727332882, 4.832461833953857, -1.3149460554122925, 5.977149486541748, -45.50738525390625, -18.450824737548828, -28.073610305786133
149, 2727349549, 5.317148685455322, -1.8431386947631836, 6.150549411773682, 11.220947265625, -22.324831008911133, -55.37551498413086
150, 2727366216, 5.096133708953857, -2.5856335163116455, 6.361648082733154, 43.77659606933594, -29.316728591918945, -65.56694030761719
151, 2727382883, 5.2542572021484375, -2.778850793838501, 7.0822248458862305, 55.20026397705078, -33.61690902709961, -57.329830169677734
152, 2727399550, 5.536983013153076, -2.326080799102783, 7.827366352081299, 23.20610809326172, -36.79168701171875, -46.481101989746094
153, 2727416217, 5.884428977966309, -2.1115050315856934, 7.66132116317749, 3.744197368621826, -37.3284797668457, -48.43756103515625
154, 2727432884, 6.253170490264893, -2.1952948570251465, 7.6782307624816895, 28.526123046875, -32.00995635986328, -57.16886901855469
155, 2727449551, 3.0551657676696777, -3.4464545249938965, 7.522251129150391, -30.671112060546875, -70.34117889404297, -38.56169509887695
156, 2727466218, 6.305711269378662, -3.0767579078674316, 7.522328853607178, -11.624441146850586, -67.8266372680664, -18.32461166381836
157, 2727482885, 7.680824279785156, -2.4762821197509766, 7.66505241394043, -39.78000259399414, -53.53963088989258, -22.28262710571289
158, 2727499552, 7.518934726715088, -2.472633123397827, 7.344831466674805, -63.121219635009766, -31.73870086669922, -28.752866744995117
159, 2727516219, 6.764372825622559, -2.801990509033203, 6.497483253479004, -95.73058319091797, -29.785810470581055, -32.31010437011719
160, 2727532886, 6.851863384246826, -2.8175904750823975, 5.389272212982178, -100.32740783691406, -27.776514053344727, -35.31084060668945
161, 2727549553, 6.727748870849609, -2.390057325363159, 4.805446147918701, -94.23638153076172, -28.01996612548828, -40.42630386352539
162, 2727566220, 6.512179374694824, -2.2538962364196777, 4.4949631690979, -58.34663772583008, -34.88139724731445, -46.22578811645508
163, 2727582887, 6.209780216217041, -2.4062106609344482, 4.769223213195801, -9.353992462158203, -53.2900390625, -47.617828369140625
164, 2727599554, 7.4374189376831055, -2.7206358909606934, 5.590590000152588, 31.683622360229492, -50.141117095947266, -51.017112731933594
165, 2727616221, 6.948523044586182, -2.578751564025879, 6.737287521362305, 79.69783020019531, -47.615631103515625, -37.450374603271484
166, 2727632888, 7.594237327575684, -2.6683921813964844, 7.72500467300415, 61.84750747680664, -26.868906021118164, -38.492027282714844
167, 2727649555, 7.320732116699219, -3.026165723800659, 8.20850658416748, 35.65168380737305, -5.814212322235107, -26.041584014892578
168, 2727666222, 7.257255554199219, -2.967777967453003, 8.120553016662598, 12.385811805725098, 15.093335151672363, -16.55707359313965
169, 2727682889, 4.548460483551025, -3.087796449661255, 8.226675987243652, -47.08916091918945, 10.071758270263672, 0.7084593772888184
170, 2727699556, 6.796426773071289, -2.104440927505493, 7.008838176727295, -94.88591766357422, 22.10173988342285, -5.520234107971191
171, 2727716223, 7.742880821228027, -2.241791009902954, 6.296794414520264, -139.3600311279297, 19.76385498046875, -6.270121097564697
172, 2727732890, 10.169800758361816, -2.3881452083587646, 5.521998405456543, -61.56589889526367, 39.72242736816406, 4.82737398147583
173, 2727749557, 8.406065940856934, -2.5011484622955322, 4.850423336029053, -97.93641662597656, 12.200408935546875, 8.363840103149414
174, 2727766224, 7.802826881408691, -2.776515245437622, 4.1860032081604, -72.7745361328125, -3.035430431365967, -2.691483974456787
175, 2727782891, 7.139926433563232, -2.749368667602539, 4.542594909667969, -16.80224609375, -14.192999839782715, -10.401236534118652
176, 2727799558, 8.022065162658691, -3.3045766353607178, 3.243056535720825, -128.9793701171875, -58.2519645690918, -21.080556869506836
177, 2727816225, 6.413947582244873, -3.5102310180664062, 3.329226016998291, 66.90692901611328, -54.85309600830078, -4.115237236022949
178, 2727832892, 5.379383087158203, -3.421207904815674, 5.903511047363281, 65.59553527832031, -15.303442001342773, -10.787362098693848
179, 2727849559, 7.07847261428833, -3.726547956466675, 4.741993427276611, -39.127532958984375, 3.0613808631896973, -1.7152149677276611
180, 2727866226, 7.812170028686523, -3.835878372192383, 3.7683329582214355, -129.22340393066406, -26.060287475585938, 19.17426872253418
181, 2727882893, 7.805387020111084, -3.425035238265991, 2.184176206588745, -220.4287109375, -77.28633117675781, 21.81119728088379
182, 2727899560, 6.960761070251465, -2.7937231063842773, 0.26002049446105957, -224.82196044921875, -110.33292388916016, 9.921041488647461
183, 2727916227, 7.632620811462402, -2.1986238956451416, -0.20225228369235992, -166.12664794921875, -144.5757293701172, -10.346256256103516
184, 2727932894, 10.328306198120117, -2.307612419128418, -0.03732249140739441, -43.17531204223633, -203.1757049560547, -42.156253814697266
185, 2727949561, 7.841511249542236, -2.5485522747039795, 2.2182161808013916, 48.98469161987305, -218.23330688476562, -62.014129638671875
186, 2727966228, 13.194744110107422, -3.235316038131714, 11.244536399841309, -166.37001037597656, -252.2955780029297, -89.33793640136719
187, 2727982895, 10.501686096191406, -4.290848255157471, 7.618386268615723, -256.0387268066406, -216.0673065185547, -69.64419555664062
188, 2727999562, 7.5286173820495605, -4.258910655975342, 7.894523620605469, -15.591005325317383, -46.09939193725586, -48.612552642822266
189, 2728016229, 7.118047714233398, -3.430286169052124, 7.4690375328063965, 53.07277297973633, 72.04563903808594, -45.6878547668457
190, 2728032896, 8.148359298706055, -2.8866665363311768, 6.010354042053223, 46.06387710571289, 170.1239471435547, -37.10349655151367
191, 2728049563, 10.08491039276123, -6.971180438995361, -4.5604400634765625, -9.968069076538086, 186.6461181640625, -55.421512603759766
192, 2728066230, 13.01136589050293, -5.200562477111816, -3.1566617488861084, -106.11746215820312, 8.040834426879883, 23.653657913208008
193, 2728082897, 8.758634567260742, -3.079523801803589, -0.47382399439811707, -205.25999450683594, -87.7313461303711, 63.86735916137695
194, 2728099564, 6.301039218902588, -2.1342804431915283, 0.24495744705200195, -268.573486328125, -121.96038818359375, 42.13240051269531
195, 2728116231, 5.994255542755127, -1.9733272790908813, 0.24440090358257294, -154.26385498046875, -118.5920181274414, 4.883335590362549
196, 2728132898, 8.388434410095215, -1.7691168785095215, 1.5614224672317505, -52.28173065185547, -81.52841186523438, -38.4754753112793
197, 2728149565, 11.894010543823242, -2.0028653144836426, 1.5456002950668335, -31.672039031982422, -35.6405029296875, -77.73100280761719
198, 2728166232, 9.910713195800781, -2.6754987239837646, 1.546107530593872, 49.52043533325195, -15.73685359954834, -101.2987289428711
199, 2728182899, 8.422527313232422, -2.5633902549743652, 3.1791739463806152, 41.78898620605469, 17.96466827392578, -98.72288513183594
200, 2728199566, 10.090580940246582, -3.178889513015747, 0.9131821393966675, -39.87578201293945, 32.96802520751953, -106.01195526123047
201, 2728216233, 10.877799987792969, -3.9009690284729004, 0.3082018196582794, 21.9787540435791, 22.498992919921875, -93.88790130615234
202, 2728232900, 8.734601020812988, -3.756417751312256, -0.09723494946956635, 30.331893920898438, 27.124914169311523, -74.0671157836914
203, 2728249567, 10.138924598693848, -3.664294481277466, -1.047080636024475, -19.33964729309082, 11.284978866577148, -61.7598762512207
204, 2728266234, 10.673188209533691, -3.7498199939727783, -1.1388390064239502, -25.99738121032715, -29.67167091369629, -46.18861770629883
205, 2728282901, 10.400300025939941, -3.4613959789276123, -0.4295136332511902, -26.33612060546875, -65.07671356201172, -32.31250762939453
206, 2728299568, 9.984094619750977, -3.5714991092681885, 1.4583061933517456, -5.885168075561523, -83.69158172607422, -15.548077583312988
207, 2728316235, 9.673203468322754, -3.2856037616729736, 4.036340236663818, 24.167724609375, -31.924386978149414, -2.5204319953918457
208, 2728332902, 9.061132431030273, -2.6361141204833984, 3.7437098026275635, 1.06159508228302, 41.194541931152344, 2.353686809539795
209, 2728349569, 9.194378852844238, -1.795411467552185, 0.5825129151344299, -32.124637603759766, 77.00680541992188, 2.792973518371582
210, 2728366236, 9.654692649841309, -1.3571401834487915, -0.9116546511650085, -24.471105575561523, 75.99309539794922, -4.786225318908691
211, 2728382903, 9.535606384277344, -1.3930848836898804, -1.1100126504898071, -25.924745559692383, 52.52593231201172, -11.189892768859863
212, 2728399570, 9.746521949768066, -1.7189252376556396, -0.6462697982788086, -3.130924940109253, 32.52615737915039, -18.59303092956543
213, 2728416237, 9.720357894897461, -2.076260805130005, 0.022860482335090637, -4.456459045410156, 18.1324405670166, -25.30045509338379
214, 2728432904, 10.37034797668457, -3.2074010372161865, -0.12498617172241211, -25.49715232849121, -6.30112886428833, -15.884636878967285
215, 2728449571, 9.642190933227539, -3.5671846866607666, 0.8382404446601868, 13.35796070098877, -8.823223114013672, 1.21475350856781
216, 2728466238, 9.459818840026855, -3.140864849090576, 1.6334681510925293, 29.23427963256836, 8.441583633422852, 21.357311248779297
217, 2728482905, 9.585441589355469, -2.776343584060669, 1.6638730764389038, -31.82386016845703, 18.690967559814453, 37.72576904296875
218, 2728499572, 9.978388786315918, -2.3807168006896973, 0.6779443025588989, -68.48078155517578, 11.543999671936035, 50.16856384277344
219, 2728516239, 9.83554744720459, -1.8230699300765991, 0.5545949339866638, -65.45109558105469, -4.37373161315918, 51.44523239135742
220, 2728532906, 9.231532096862793, -1.3632127046585083, 0.7051935195922852, -69.33334350585938, -13.159219741821289, 44.77447509765625
221, 2728549573, 8.98955249786377, -1.113997220993042, 0.5917303562164307, -53.023773193359375, -6.780081272125244, 31.577730178833008
222, 2728566240, 9.06941032409668, -0.987677276134491, 0.6439744234085083, -26.573619842529297, 0.712080180644989, 14.416032791137695
223, 2728582907, 9.139650344848633, -1.0349982976913452, 0.45959872007369995, -10.365413665771484, 5.503845691680908, -6.356025695800781
224, 2728599574, 9.303641319274902, -1.5145632028579712, 0.20663505792617798, 12.788440704345703, 5.028883457183838, -26.01360511779785
225, 2728616241, 9.40689754486084, -2.0840628147125244, 0.3820844888687134, 28.024656295776367, -0.6015183925628662, -34.19215393066406
226, 2728632908, 9.57067584991455, -2.553989887237549, 0.5477123260498047, 27.696630477905273, -4.315450191497803, -35.328758239746094
227, 2728649575, 9.682859420776367, -2.8876125812530518, 0.5228177905082703, 36.33491516113281, -4.765627384185791, -31.772493362426758
228, 2728666242, 9.597745895385742, -2.90040922164917, 1.2298896312713623, 39.89598083496094, -4.3095197677612305, -17.936132431030273
229, 2728682909, 9.31791877746582, -2.7838754653930664, 1.5717166662216187, 11.62555980682373, 5.329464912414551, -11.754117012023926
230, 2728699576, 9.903717041015625, -2.2732491493225098, 0.744463324546814, -60.98326110839844, 2.6162242889404297, -1.1506271362304688
231, 2728716243, 9.589456558227539, -2.5928523540496826, -0.2335614711046219, 6.2481489181518555, -2.2798895835876465, -7.366291522979736
232, 2728732910, 9.51839828491211, -3.0637197494506836, 0.8943636417388916, 25.33095359802246, 5.437685966491699, -6.520573616027832
233, 2728749577, 10.083542823791504, -3.4825756549835205, 0.33964675664901733, -11.422135353088379, -6.953201770782471, 10.464122772216797
234, 2728766244, 7.721682548522949, -3.5051541328430176, 0.7579225897789001, -2.5015835762023926, -35.421714782714844, 25.35878562927246
235, 2728782911, 9.837936401367188, -3.057621479034424, 1.2954769134521484, -28.313467025756836, -38.553131103515625, 41.08707809448242
236, 2728799578, 11.951541900634766, -2.151139259338379, 2.072396755218506, -72.16645812988281, -11.321586608886719, 52.54375076293945
237, 2728816245, 8.914288520812988, -2.1452908515930176, 0.5073609948158264, -43.7458610534668, 10.90979290008545, 46.46078109741211
238, 2728832912, 9.315563201904297, -1.714839220046997, 0.45739883184432983, -45.46720504760742, 17.695556640625, 45.298336029052734
239, 2728849579, 9.151077270507812, -1.4031689167022705, -0.21937014162540436, -95.65414428710938, 0.22018113732337952, 33.2672119140625
240, 2728866246, 9.200160026550293, -1.5443499088287354, -1.1545873880386353, -71.40388488769531, -9.430940628051758, 12.70524787902832
241, 2728882913, 9.149062156677246, -1.5348953008651733, -1.2892873287200928, 1.4921005964279175, -12.229878425598145, -3.14402437210083
242, 2728899580, 9.309557914733887, -2.270580768585205, -0.8662360906600952, 5.323413372039795, -25.963396072387695, -25.22661781311035
243, 2728916247, 10.130752563476562, -4.5526251792907715, -1.0162826776504517, 101.02640533447266, -35.546836853027344, -26.02678108215332
244, 2728932914, 10.401006698608398, -6.1081366539001465, 3.356017589569092, 155.9998321533203, -33.448848724365234, -3.277900218963623
245, 2728949581, 9.72826099395752, -5.291005611419678, 5.319961071014404, -2.1670055389404297, -0.608421802520752, 47.85915756225586
246, 2728966248, 10.024839401245117, -4.154963970184326, 2.118095874786377, -54.05000305175781, 39.84047317504883, 78.35903930664062
247, 2728982915, 9.13021183013916, -2.521967649459839, 1.5902000665664673, -85.94854736328125, 53.61076354980469, 92.35340118408203
248, 2728999582, 9.205817222595215, -1.7753146886825562, -0.20297668874263763, -123.72726440429688, 57.07874298095703, 81.92768096923828
249, 2729016249, 8.734794616699219, -1.2838870286941528, -1.219555377960205, -115.15637969970703, 43.080265045166016, 55.48960876464844
250, 2729032916, 8.818891525268555, -1.184098243713379, -2.0650105476379395, -45.085872650146484, 23.491840362548828, 30.074949264526367
251, 2729049583, 8.570141792297363, -1.2257829904556274, -1.6374727487564087, 8.15865421295166, 7.617713451385498, -3.354714870452881
252, 2729066250, 8.639104843139648, -1.6623661518096924, -1.2282936573028564, 19.5869140625, -8.406000137329102, -30.446617126464844
253, 2729082917, 9.212414741516113, -2.478577136993408, -1.1830990314483643, 50.494380950927734, -27.473230361938477, -52.5816650390625
254, 2729099584, 9.12397289276123, -3.263119697570801, -0.010308800265192986, 100.41990661621094, -30.36163330078125, -59.37063980102539
255, 2729116251, 9.50439739227295, -3.893937587738037, 1.0129588842391968, 86.69032287597656, -31.675317764282227, -56.388397216796875
256, 2729132918, 9.641189575195312, -4.292426109313965, 1.3562073707580566, 43.655601501464844, -26.28399658203125, -42.994075775146484
257, 2729149585, 9.564332008361816, -4.618270397186279, 1.2264307737350464, 32.73625183105469, -22.66774559020996, -27.42611312866211
258, 2729166252, 9.634716033935547, -4.62814474105835, 1.646829605102539, 24.91057014465332, -5.903716087341309, -6.443402290344238
259, 2729182919, 9.661751747131348, -4.410111904144287, 1.5761531591415405, -17.361160278320312, 1.0878561735153198, 11.944598197937012
260, 2729199586, 9.433215141296387, -3.638523578643799, 2.1465113162994385, -44.28367233276367, -1.6347870826721191, 34.591060638427734
261, 2729216253, 9.384976387023926, -2.586552381515503, 1.3002715110778809, -66.26514434814453, 33.3942756652832, 34.41350555419922
262, 2729232920, 9.547201156616211, -1.6549961566925049, 0.8295577764511108, -54.077613830566406, 25.804555892944336, 13.872335433959961
263, 2729249587, 9.175048828125, -2.5273396968841553, 1.0662497282028198, 100.14704895019531, 45.31748962402344, -10.120818138122559
264, 2729266254, 7.673786163330078, -1.7785671949386597, 2.3510568141937256, 78.97190856933594, 81.43470001220703, -10.477839469909668
265, 2729282921, 9.603514671325684, -0.9906796813011169, -1.5851203203201294, -153.97445678710938, 63.03141784667969, -33.83168411254883
266, 2729299588, 9.787574768066406, -2.482820749282837, -4.280256271362305, 11.718725204467773, 6.762209892272949, -51.32251739501953
267, 2729316255, 9.184335708618164, -2.843590021133423, 0.6968342065811157, 130.71243286132812, -4.268233299255371, -52.548866271972656
268, 2729332922, 9.328531265258789, -3.320016860961914, 1.8517284393310547, 26.28921890258789, -13.30349063873291, -48.6166877746582
269, 2729349589, 10.719481468200684, -4.910977363586426, 1.1404286623001099, 18.54230308532715, -2.0975258350372314, -36.73802185058594
270, 2729366256, 8.578563690185547, -4.313719749450684, 0.9189585447311401, -27.249542236328125, -12.342748641967773, -3.132648229598999
271, 2729382923, 9.6087064743042, -3.146677017211914, 1.2628253698349, 6.549665927886963, 7.407820224761963, 11.690035820007324
272, 2729399590, 9.295010566711426, -2.653007745742798, 0.594520092010498, -52.03919982910156, 2.197251796722412, 10.109258651733398
273, 2729416257, 9.929518699645996, -3.013730525970459, -0.7192859053611755, -12.589577674865723, -9.778349876403809, 6.843048572540283
274, 2729432924, 9.592214584350586, -3.866658926010132, 0.30524519085884094, 65.51701354980469, -14.509405136108398, 9.342977523803711
275, 2729449591, 9.526427268981934, -3.302726984024048, 1.3167527914047241, -4.970462799072266, -24.953317642211914, 26.888578414916992
276, 2729466258, 9.4013090133667, -3.3233296871185303, -0.6834964752197266, -32.52909851074219, -32.3469123840332, 34.91411209106445
277, 2729482925, 9.809450149536133, -3.056974172592163, -0.5007573962211609, 10.959356307983398, -41.72767639160156, 37.023033142089844
278, 2729499592, 9.428023338317871, -3.166809320449829, -0.10225416719913483, 22.545963287353516, -56.81195068359375, 37.186702728271484
279, 2729516259, 10.690879821777344, -3.873420238494873, 1.625870943069458, -14.014551162719727, -52.182518005371094, 38.19679260253906
280, 2729532926, 9.505542755126953, -4.431143760681152, 2.358888864517212, -8.084136009216309, -6.937071323394775, 55.20040512084961
281, 2729549593, 8.979571342468262, -4.305302143096924, 1.2764005661010742, -44.61830520629883, 40.1335563659668, 61.59058380126953
282, 2729566260, 9.691632270812988, -5.039444923400879, 0.14238500595092773, -36.8917350769043, 50.450252532958984, 70.36148834228516
283, 2729582927, 9.631861686706543, -5.913802623748779, -0.587089478969574, -88.19035339355469, 35.70982360839844, 80.26353454589844
284, 2729599594, 9.711584091186523, -5.86093807220459, -1.6215417385101318, -67.49517822265625, 15.725428581237793, 109.26215362548828
285, 2729616261, 9.491333961486816, -5.470114231109619, -1.8496673107147217, -52.560035705566406, -24.284299850463867, 122.79427337646484
286, 2729632928, 9.626770973205566, -5.57135534286499, -0.7622677683830261, -19.135215759277344, -45.04335403442383, 121.68987274169922
287, 2729649595, 9.273521423339844, -6.182123184204102, 0.7198753952980042, 14.668615341186523, -27.27722930908203, 119.81642150878906
288, 2729666262, 9.002238273620605, -6.741972923278809, 1.3941723108291626, 35.94811248779297, 10.940510749816895, 122.10836029052734
289, 2729682929, 8.964186668395996, -7.182818412780762, 0.46693864464759827, -7.401653289794922, 9.725532531738281, 127.63372802734375
290, 2729699596, 10.118273735046387, -7.062664985656738, -1.3480180501937866, 5.460195541381836, -27.838333129882812, 153.7786865234375
291, 2729716263, 10.198006629943848, -5.836706638336182, -1.8214490413665771, 11.200815200805664, -65.76838684082031, 150.26345825195312
292, 2729732930, 9.21114444732666, -5.2528862953186035, -1.5109820365905762, 81.38799285888672, -76.79619598388672, 133.3693084716797
293, 2729749597, 7.787233352661133, -5.711974620819092, -1.4098080396652222, 174.84747314453125, -53.530330657958984, 102.5115966796875
294, 2729766264, 7.749805450439453, -6.530422687530518, -0.9292666912078857, 252.11985778808594, -42.11906051635742, 73.07798767089844
295, 2729782931, 8.60749340057373, -7.609707832336426, 0.6433913707733154, 287.11865234375, -49.54023361206055, 65.03388977050781
296, 2729799598, 9.595547676086426, -8.445426940917969, 3.022498369216919, 242.72735595703125, -63.362518310546875, 82.57184600830078
297, 2729816265, 8.791122436523438, -8.772542953491211, 4.784311771392822, 90.86546325683594, -72.38762664794922, 124.70316314697266
298, 2729832932, 8.782690048217773, -7.23700475692749, 4.060876369476318, -4.171658992767334, -34.96442413330078, 163.79112243652344
299, 2729849599, 7.987362384796143, -5.626059055328369, 2.170041561126709, -49.87271499633789, 6.264580726623535, 157.7339630126953
300, 2729866266, 8.300142288208008, -4.7650227546691895, 0.20755167305469513, 37.78691101074219, 21.758480072021484, 116.77698516845703
301, 2729882933, 7.178794860839844, -4.975083827972412, 1.0415453910827637, 151.04774475097656, 44.82358932495117, 58.050777435302734
302, 2729899600, 5.230146884918213, -5.561037063598633, 1.8703291416168213, 209.74969482421875, 70.3669204711914, 32.13003158569336
303, 2729916267, 5.300970554351807, -5.897591590881348, 3.0310909748077393, 209.11195373535156, 78.098388671875, 29.37019920349121
304, 2729932934, 4.70341157913208, -5.92428731918335, 4.177188396453857, 120.50594329833984, 104.99939727783203, 35.72768020629883
305, 2729949601, 4.5064544677734375, -7.202140808105469, -0.521666944026947, 35.5474739074707, 124.53619384765625, 36.06040573120117
306, 2729966268, 5.380585670471191, -6.421978950500488, 1.873254656791687, 80.24231719970703, 71.6292495727539, 64.6491928100586
307, 2729982935, 3.7079155445098877, -5.6169328689575195, 2.532266139984131, 49.99041748046875, 27.654132843017578, 61.21283721923828
308, 2729999602, 3.728153705596924, -5.386495113372803, 2.9619240760803223, 72.98162078857422, 14.291507720947266, 42.70597839355469
309, 2730016269, 4.018383979797363, -5.584433555603027, 4.084212779998779, 98.83187866210938, 22.402008056640625, 19.348169326782227
310, 2730032936, 4.1122589111328125, -6.272875785827637, 3.4938173294067383, 132.0028839111328, 36.69257736206055, -3.3912689685821533
311, 2730049603, 4.544138431549072, -7.028275489807129, 2.388476610183716, 198.618896484375, 38.3310432434082, -6.309678077697754
312, 2730066270, 5.3554863929748535, -7.3052592277526855, 4.825717449188232, 202.0957794189453, 22.249420166015625, 7.052787780761719
313, 2730082937, 4.885604381561279, -7.190402984619141, 4.686618804931641, 51.82546615600586, -13.018089294433594, 21.7905216217041
314, 2730099604, 3.750582218170166, -6.848548412322998, 4.574041843414307, 9.910104751586914, -48.57770538330078, 37.66578674316406
315, 2730116271, 3.9579885005950928, -5.950584411621094, 4.9949541091918945, -52.60206604003906, -79.4905014038086, 37.45509719848633
316, 2730132938, 4.445858955383301, -5.113819122314453, 4.498128890991211, -75.89158630371094, -83.7867431640625, 32.15020751953125
317, 2730149605, 3.5545620918273926, -5.550256252288818, 3.969852924346924, -51.86403274536133, -73.90281677246094, 22.52334976196289
318, 2730166272, 3.233431339263916, -6.632308006286621, 4.273818016052246, 14.558290481567383, -55.68257522583008, 37.6324577331543
319, 2730182939, 2.9000275135040283, -6.449217319488525, 5.967513084411621, 43.94952392578125, -53.19664764404297, 31.983007431030273
320, 2730199606, 5.365264892578125, -5.482085227966309, 4.466882705688477, 98.25127410888672, -30.336559295654297, 22.09650230407715
321, 2730216273, 4.230557918548584, -6.145688056945801, 6.001514434814453, 187.44248962402344, 9.283869743347168, 29.499446868896484
322, 2730232940, 3.6464223861694336, -6.450549602508545, 6.798861980438232, 116.29025268554688, 19.811616897583008, 52.07001876831055
323, 2730249607, 3.78448486328125, -6.928513526916504, 6.6020612716674805, 55.994850158691406, 36.145816802978516, 66.57168579101562
324, 2730266274, 3.453495502471924, -6.837518215179443, 4.917500019073486, -11.116220474243164, 28.38496208190918, 70.5093994140625
325, 2730282941, 3.337205648422241, -6.273982524871826, 4.068566799163818, 10.749176979064941, 3.557676315307617, 55.497379302978516
326, 2730299608, 3.4824178218841553, -6.250919818878174, 4.203486919403076, 13.024527549743652, -15.21090316772461, 59.7509880065918
327, 2730316275, 2.9435017108917236, -5.590267658233643, 4.381610870361328, 38.01729965209961, -28.677772521972656, 60.891090393066406
328, 2730332942, 2.146730899810791, -5.560260772705078, 4.267128944396973, 18.428939819335938, -51.351322174072266, 35.623512268066406
329, 2730349609, 2.892648458480835, -5.46580696105957, 3.9962899684906006, 4.315697193145752, -96.39616394042969, 10.328144073486328
330, 2730366276, 3.412729263305664, -6.451016902923584, 3.550333023071289, -10.248629570007324, -133.0093536376953, -6.177274227142334
331, 2730382943, 3.661792516708374, -7.776980876922607, 3.336930513381958, -48.58049011230469, -156.32212829589844, 27.827604293823242
332, 2730399610, 2.5934674739837646, -6.56272029876709, 4.380018711090088, -126.8779525756836, -201.1136932373047, 87.24513244628906
333, 2730416277, 2.0209310054779053, -4.364328384399414, 5.631872653961182, -123.78453063964844, -236.10287475585938, 94.17406463623047
334, 2730432944, 3.2320055961608887, -3.1741302013397217, 7.43754243850708, -84.5940933227539, -229.40228271484375, 49.194820404052734
335, 2730449611, 4.371467590332031, -3.176894426345825, 8.683527946472168, -41.350887298583984, -132.2039794921875, 2.55918288230896
336, 2730466278, 3.071438789367676, -4.358330249786377, 6.359716892242432, 5.579034805297852, -31.849327087402344, -42.89326477050781
337, 2730482945, 3.253673791885376, -5.4190545082092285, 4.357242107391357, 17.336137771606445, -12.119686126708984, -53.41797637939453
338, 2730499612, 4.703540802001953, -5.775238037109375, 4.119101524353027, 42.98646545410156, -24.941463470458984, -52.584007263183594
339, 2730516279, 5.930539131164551, -6.180406093597412, 4.235544204711914, 24.77870750427246, -46.396339416503906, -70.90498352050781
340, 2730532946, 7.4614481925964355, -6.85197639465332, 4.443180561065674, 78.23884582519531, -84.4367446899414, -85.2236328125
341, 2730549613, 9.836337089538574, -8.543966293334961, 8.003917694091797, 147.2235107421875, -121.65113830566406, -99.13909912109375
342, 2730566280, 10.887386322021484, -10.987747192382812, 10.589089393615723, 123.35962677001953, -105.48285675048828, -71.03675842285156
343, 2730582947, 9.560043334960938, -11.303342819213867, 10.2648344039917, 10.586902618408203, -34.59870147705078, 10.677098274230957
344, 2730599614, 6.8711771965026855, -7.228515625, 6.442726135253906, -80.18932342529297, 29.037357330322266, 81.3680419921875
345, 2730616281, 5.125755786895752, -3.8546080589294434, 3.210723876953125, -99.59710693359375, 45.209197998046875, 75.18771362304688
346, 2730632948, 4.08126974105835, -2.9152145385742188, 1.6193114519119263, -60.450836181640625, 37.674991607666016, 33.11936950683594
347, 2730649615, 3.83253812789917, -3.1452391147613525, 1.3960011005401611, -0.21054956316947937, 20.41359519958496, -9.733803749084473
348, 2730666282, 3.7486143112182617, -3.859410524368286, 2.042572498321533, 31.123525619506836, 8.771903991699219, -41.4342155456543
349, 2730682949, 4.195857048034668, -4.507323265075684, 2.266538143157959, 35.378089904785156, 5.885202884674072, -55.512855529785156
350, 2730699616, 5.467944145202637, -5.118485450744629, 2.053839683532715, 24.120128631591797, 5.125792026519775, -68.25839233398438
351, 2730716283, 7.491669654846191, -6.54358434677124, 1.2951977252960205, 28.092666625976562, -13.605792999267578, -78.13645935058594
352, 2730732950, 8.882454872131348, -8.292272567749023, 2.816555976867676, 70.59117126464844, -40.451778411865234, -66.86238098144531
353, 2730749617, 9.497034072875977, -9.245956420898438, 5.057615280151367, 84.44197845458984, -36.09672546386719, -34.44841766357422
354, 2730766284, 9.070541381835938, -8.540145874023438, 5.061131477355957, 72.86640930175781, -22.36357307434082, -0.6590410470962524
355, 2730782951, 7.691787242889404, -7.110337257385254, 4.651700019836426, 41.72407913208008, -33.214717864990234, 19.134037017822266
356, 2730799618, 6.914431571960449, -5.828365802764893, 5.445373058319092, 39.60256576538086, -43.32149124145508, 29.787029266357422
357, 2730816285, 6.249138355255127, -5.142745494842529, 5.761533260345459, 44.540199279785156, -23.861587524414062, 25.93442726135254
358, 2730832952, 6.010703086853027, -4.649806499481201, 5.702006816864014, 73.49182891845703, -1.260273814201355, 22.918895721435547
359, 2730849619, 6.286362171173096, -4.73234748840332, 5.3835320472717285, 106.58053588867188, 27.879894256591797, 15.124300003051758
360, 2730866286, 6.708240509033203, -5.346089839935303, 4.593514442443848, 80.78528594970703, 38.26925277709961, 6.783581733703613
361, 2730882953, 7.066237926483154, -5.57489013671875, 3.644087314605713, 57.53364944458008, 23.040307998657227, 10.508452415466309
362, 2730899620, 6.897841930389404, -5.107825756072998, 3.9972660541534424, 48.51641082763672, 4.647229194641113, 14.577733039855957
363, 2730916287, 6.3420844078063965, -4.773365497589111, 4.778182029724121, 46.041595458984375, 0.2932741343975067, 11.725157737731934
364, 2730932954, 6.223531246185303, -4.404806613922119, 5.4312424659729, 47.107093811035156, 6.651985168457031, 6.357193946838379
365, 2730949621, 6.553923606872559, -4.689454078674316, 5.875265598297119, 55.89811325073242, 16.0167293548584, -5.560698986053467
366, 2730966288, 6.575087547302246, -5.455365180969238, 5.75245475769043, 68.98989868164062, 27.14606285095215, 3.621417999267578
367, 2730982955, 6.289708137512207, -5.077078819274902, 5.575798034667969, 63.18914031982422, 29.536853790283203, 19.363697052001953
368, 2730999622, 5.755870342254639, -4.439556121826172, 5.122980117797852, 74.97618865966797, 29.246416091918945, 26.525136947631836
369, 2731016289, 5.561355113983154, -4.086148738861084, 5.440256595611572, 91.55243682861328, 33.15987777709961, 20.69060516357422
370, 2731032956, 5.703474044799805, -4.146956443786621, 5.7382330894470215, 118.37171173095703, 42.34170913696289, 13.837367057800293
371, 2731049623, 5.699772357940674, -4.14754581451416, 6.111542224884033, 144.71878051757812, 53.461814880371094, 12.954695701599121
372, 2731066290, 5.445242404937744, -3.756357192993164, 6.93142032623291, 175.67408752441406, 69.58300018310547, 16.225990295410156
373, 2731082957, 5.514118194580078, -3.4797582626342773, 6.525161266326904, 182.3233642578125, 85.80654907226562, 10.095291137695312
374, 2731099624, 5.728440284729004, -3.486921787261963, 6.108090400695801, 198.04644775390625, 85.1044692993164, 8.0294828414917
375, 2731116291, 5.570757865905762, -3.2383694648742676, 6.109592437744141, 178.67747497558594, 62.24083709716797, 8.848123550415039
376, 2731132958, 5.40355110168457, -2.251511812210083, 6.756549835205078, 184.31507873535156, 31.026264190673828, 13.080389976501465
377, 2731149625, 4.677628517150879, -1.3987915515899658, 8.334099769592285, 179.46250915527344, 28.657821655273438, 5.477421283721924
378, 2731166292, 4.601190090179443, -0.7444062232971191, 8.765790939331055, 187.48013305664062, 50.313331604003906, -2.6785733699798584
379, 2731182959, 4.691410064697266, -0.2376953661441803, 8.155895233154297, 244.38938903808594, 73.7854995727539, -6.573819160461426
380, 2731199626, 4.340478420257568, 0.3946607708930969, 7.400455951690674, 290.6795349121094, 78.20915985107422, -7.936621189117432
381, 2731216293, 4.11301326751709, 1.8083999156951904, 6.3637375831604, 402.402587890625, 87.66594696044922, -8.636889457702637
382, 2731232960, 3.6326844692230225, 4.165475845336914, 6.396144866943359, 564.19091796875, 99.86895751953125, -21.42215347290039
383, 2731249627, 2.81361722946167, 6.902628421783447, 8.014097213745117, 713.6464233398438, 118.17147064208984, -57.16915512084961
384, 2731266294, 2.643181800842285, 7.24901819229126, 10.793749809265137, 632.1080322265625, 112.66485595703125, -124.29389953613281
385, 2731282961, 3.094855546951294, 6.174218654632568, 11.469316482543945, 430.2961730957031, 111.20556640625, -146.16615295410156
386, 2731299628, 3.4661035537719727, 5.705618381500244, 7.890801429748535, 230.38043212890625, 111.1816635131836, -143.7607421875
387, 2731316295, 3.3994739055633545, 4.647253513336182, 6.177329063415527, 180.52857971191406, 108.85298919677734, -99.96439361572266
388, 2731332962, 2.886554479598999, 4.600362777709961, 5.139669895172119, 126.69398498535156, 93.45673370361328, -43.7357063293457
389, 2731349629, 2.400376081466675, 5.603720664978027, 4.825715065002441, 99.76727294921875, 73.66407012939453, 3.493626832962036
390, 2731366296, 2.3463213443756104, 7.676229000091553, 3.7925655841827393, 27.144737243652344, 35.84624099731445, 27.64398765563965
391, 2731382963, 2.5057151317596436, 8.633709907531738, 4.196792125701904, 33.70427703857422, 7.9535112380981445, 73.6019058227539
392, 2731399630, 1.28141188621521, 8.509514808654785, 5.073732376098633, 34.282344818115234, 1.2056940793991089, 113.29119873046875
393, 2731416297, 1.1240246295928955, 11.438252449035645, 4.571946144104004, 16.311553955078125, 11.610797882080078, 4.426732540130615
394, 2731432964, 1.7518715858459473, 9.789362907409668, 3.764816999435425, 28.718347549438477, 7.2355241775512695, -43.06694030761719
395, 2731449631, 1.7062734365463257, 9.11330509185791, 4.807371139526367, 29.770496368408203, -1.0612908601760864, -57.594425201416016
396, 2731466298, 2.0066921710968018, 8.06338119506836, 5.379178524017334, 15.732358932495117, 7.843085765838623, -61.228397369384766
397, 2731482965, 2.0035572052001953, 7.959562301635742, 5.35539436340332, -15.198301315307617, 14.222672462463379, -49.1715087890625
398, 2731499632, 1.4266300201416016, 8.118812561035156, 5.230461597442627, -58.373722076416016, 17.339460372924805, -46.8525276184082
399, 2731516299, 0.8464664220809937, 7.887753963470459, 4.736183166503906, -88.08834838867188, 20.255205154418945, -48.71794891357422
400, 2731532966, 1.0012320280075073, 7.51780366897583, 4.358882427215576, -106.0562744140625, 15.854802131652832, -51.11827850341797
401, 2731549633, 0.6810801029205322, 7.525166034698486, 5.06406307220459, -147.35243225097656, 5.233118057250977, -54.72757339477539
402, 2731566300, 0.8312563896179199, 6.961206912994385, 5.366665840148926, -144.66134643554688, 3.444493293762207, -48.803035736083984
403, 2731582967, 0.6069583892822266, 6.610194683074951, 5.63720178604126, -150.4759979248047, 1.8125596046447754, -38.045413970947266
404, 2731599634, 0.35365644097328186, 6.284505844116211, 5.819196701049805, -158.53988647460938, 2.6851043701171875, -30.233549118041992
405, 2731616301, 0.1413179188966751, 6.05251407623291, 5.9973320960998535, -166.27696228027344, 7.98781681060791, -25.556394577026367
406, 2731632968, 0.6046829223632812, 6.091914653778076, 5.785013198852539, -117.71284484863281, 24.298734664916992, -17.856040954589844
407, 2731649635, 0.4419976472854614, 6.640286445617676, 6.270296573638916, -57.760868072509766, 23.08336067199707, -10.44244384765625
408, 2731666302, -0.0631042942404747, 6.8559370040893555, 7.384940147399902, -61.62317657470703, 15.836691856384277, -20.27871322631836
409, 2731682969, -0.14700570702552795, 6.6300811767578125, 8.418158531188965, -116.96112823486328, 10.238363265991211, -33.846656799316406
410, 2731699636, -0.2338494062423706, 5.716022491455078, 9.496718406677246, -245.8519744873047, -0.3833144009113312, -44.97706604003906
411, 2731716303, -0.08070523291826248, 4.1124067306518555, 9.326428413391113, -383.04583740234375, 0.02000756561756134, -37.708961486816406
412, 2731732970, 0.26544472575187683, 2.7330970764160156, 8.489892959594727, -412.3079528808594, 16.213598251342773, -4.866490840911865
413, 2731749637, 0.3048829138278961, 2.1739134788513184, 7.858806133270264, -423.8559875488281, 17.026758193969727, 15.813240051269531
414, 2731766304, 0.18661172688007355, 1.9338124990463257, 6.612062454223633, -385.7838134765625, 1.2260931730270386, 30.168943405151367
415, 2731782971, 0.20600511133670807, 1.981158971786499, 6.659756183624268, -298.4364318847656, -34.613563537597656, 26.90353012084961
416, 2731799638, -0.17849496006965637, 1.2514926195144653, 8.26547622680664, -224.1851348876953, -72.40779113769531, 4.064295291900635
417, 2731816305, 0.14128360152244568, 0.011941879987716675, 9.59665584564209, -183.2443389892578, -81.42465209960938, -15.800538063049316
418, 2731832972, 0.41660192608833313, -1.272631287574768, 10.251665115356445, -155.61715698242188, -61.582584381103516, -15.648791313171387
419, 2731849639, 0.44363269209861755, -1.8040282726287842, 9.854166030883789, -165.4349822998047, -37.17438888549805, -8.26284408569336
420, 2731866306, 0.6582915186882019, -1.9271700382232666, 8.803297996520996, -158.7777557373047, -23.873884201049805, -3.6061346530914307
421, 2731882973, 0.6418043971061707, -2.4220261573791504, 8.313580513000488, -162.43038940429688, -23.433570861816406, -7.947530746459961
422, 2731899640, 0.9451603293418884, -3.0486857891082764, 7.696232795715332, -178.63893127441406, -35.77491760253906, -11.279825210571289
423, 2731916307, 1.3056533336639404, -3.4036998748779297, 7.123013973236084, -173.7777862548828, -50.82881164550781, -12.463613510131836
424, 2731932974, 1.4428271055221558, -3.559342622756958, 7.166384220123291, -117.46280670166016, -62.94561767578125, -13.351094245910645
425, 2731949641, 1.3946038484573364, -3.8981175422668457, 8.568445205688477, -69.4071273803711, -62.460079193115234, -15.050752639770508
426, 2731966308, 1.3508586883544922, -4.249488830566406, 9.508479118347168, -73.76148986816406, -49.00227355957031, -17.520998001098633
427, 2731982975, 1.6249172687530518, -4.570855617523193, 9.870322227478027, -63.397132873535156, -20.335351943969727, -11.27477741241455
428, 2731999642, 1.7392380237579346, -5.159894943237305, 9.882303237915039, -94.19160461425781, 3.3924646377563477, -11.945348739624023
429, 2732016309, 1.922036051750183, -5.5033745765686035, 8.901081085205078, -121.13809204101562, 16.11878776550293, -4.472122669219971
430, 2732032976, 1.8125019073486328, -5.274481773376465, 8.105015754699707, -124.5633773803711, 31.02694320678711, 3.3709614276885986
431, 2732049643, 1.6936559677124023, -5.01202392578125, 6.733410835266113, -122.69540405273438, 26.883811950683594, 3.3311493396759033
432, 2732066310, 1.3862144947052002, -4.980747222900391, 5.943120956420898, -107.05436706542969, 9.596810340881348, -3.532160758972168
433, 2732082977, 1.4360888004302979, -5.3957414627075195, 5.78065824508667, -89.40595245361328, -8.847357749938965, -13.153017044067383
434, 2732099644, 1.5045167207717896, -5.791196346282959, 6.2622456550598145, -58.09233856201172, -15.253837585449219, -16.847265243530273
435, 2732116311, 1.1608165502548218, -6.079737663269043, 6.801316738128662, -58.243125915527344, -10.894157409667969, -13.256178855895996
436, 2732132978, 1.6829993724822998, -6.203795433044434, 6.307861804962158, -73.85026550292969, -4.8902387619018555, -11.758317947387695
437, 2732149645, 1.6722733974456787, -6.377516269683838, 5.499552249908447, -74.3985366821289, -15.340848922729492, -7.717789649963379
438, 2732166312, 1.8684821128845215, -6.325773239135742, 5.517972469329834, -71.55317687988281, -23.19229507446289, -11.477397918701172
439, 2732182979, 1.45236337184906, -6.592438697814941, 6.183823585510254, -61.50009536743164, -31.859161376953125, -10.160874366760254
440, 2732199646, 1.4451348781585693, -6.9919657707214355, 7.069567680358887, -112.82612609863281, -32.866111755371094, -3.1421010494232178
441, 2732216313, 2.4160244464874268, -7.231258392333984, 6.374835014343262, -167.40086364746094, -16.706178665161133, 1.4177337884902954
442, 2732232980, 2.280810594558716, -7.5534796714782715, 5.225194931030273, -163.5323944091797, -3.0208029747009277, 2.268557548522949
443, 2732249647, 2.0513134002685547, -7.792529106140137, 5.086250305175781, -149.8170623779297, -15.214326858520508, -1.4768311977386475
444, 2732266314, 2.328859806060791, -8.122751235961914, 5.110064506530762, -157.40611267089844, -16.646121978759766, -9.757204055786133
445, 2732282981, 2.2164125442504883, -8.212955474853516, 5.240851402282715, -177.5732421875, -11.564136505126953, -21.912199020385742
446, 2732299648, 2.102666139602661, -8.275014877319336, 5.33213472366333, -237.9585723876953, -2.2140982151031494, -43.128387451171875
447, 2732316315, 2.4968559741973877, -8.175344467163086, 4.007109642028809, -323.1727294921875, -0.39760154485702515, -84.95287322998047
448, 2732332982, 3.2331933975219727, -9.95578670501709, 1.8569350242614746, -341.1261291503906, -4.6161346435546875, -54.981876373291016
449, 2732349649, 3.4151556491851807, -10.47570514678955, 0.8491833209991455, -310.3589172363281, -12.181504249572754, -22.553852081298828
450, 2732366316, 3.2184600830078125, -10.046469688415527, 0.41769275069236755, -261.62939453125, -11.639033317565918, -1.4331976175308228
451, 2732382983, 2.9187164306640625, -9.26741886138916, 0.1623162031173706, -240.35279846191406, -2.8519675731658936, 14.253223419189453
452, 2732399650, 2.7485146522521973, -8.469108581542969, -0.7868121862411499, -246.2794647216797, 4.362349510192871, 15.64854907989502
453, 2732416317, 2.4710421562194824, -8.158500671386719, -2.172956943511963, -217.35025024414062, 4.723481178283691, 6.816323757171631
454, 2732432984, 2.537078619003296, -8.156296730041504, -2.2425718307495117, -191.67282104492188, -0.4160809814929962, -7.6612772941589355
455, 2732449651, 2.671165704727173, -8.369100570678711, -2.895550489425659, -191.494384765625, -4.410531520843506, -18.274547576904297
456, 2732466318, 2.9297425746917725, -8.658833503723145, -3.3730525970458984, -193.6958465576172, -5.805354595184326, -29.35432243347168
457, 2732482985, 2.8355352878570557, -9.148194313049316, -4.058743476867676, -191.81326293945312, -16.35597038269043, -32.959373474121094
458, 2732499652, 3.141981601715088, -8.976319313049316, -3.8502347469329834, -173.2519073486328, -14.386996269226074, -24.664567947387695
459, 2732516319, 3.105635643005371, -8.305336952209473, -4.134397506713867, -186.82020568847656, -10.970717430114746, -15.195775985717773
460, 2732532986, 3.0311145782470703, -7.621006011962891, -4.645301818847656, -188.9666290283203, -4.86496639251709, -13.170934677124023
461, 2732549653, 2.7574048042297363, -7.3782501220703125, -5.4282732009887695, -188.45738220214844, -0.5631152391433716, -20.461769104003906
462, 2732566320, 2.943143606185913, -7.722419738769531, -6.000082015991211, -174.58447265625, -1.719902515411377, -26.859766006469727
463, 2732582987, 3.194591760635376, -7.96965217590332, -6.47744607925415, -158.19224548339844, -2.055769681930542, -20.1748046875
464, 2732599654, 3.08070969581604, -7.762328147888184, -7.0471954345703125, -128.07125854492188, -5.002360820770264, -6.716513156890869
465, 2732616321, 2.958515167236328, -7.165186882019043, -7.081289768218994, -89.96902465820312, -7.332536697387695, 3.441196918487549
466, 2732632988, 2.904946804046631, -6.536581993103027, -6.96302604675293, -60.577152252197266, -4.027994632720947, 3.6698157787323
467, 2732649655, 2.958970785140991, -6.26724100112915, -7.225078105926514, -36.93600082397461, 3.763747215270996, -4.861327648162842
468, 2732666322, 3.1936049461364746, -6.370019912719727, -7.44100284576416, -18.01032257080078, 7.144336700439453, -13.907094955444336
469, 2732682989, 3.1925454139709473, -6.664287090301514, -7.757297039031982, 1.3933647871017456, 5.053859710693359, -18.960479736328125
470, 2732699656, 3.138247013092041, -7.208656311035156, -7.785305023193359, 35.42734909057617, 3.798597812652588, -21.105260848999023
471, 2732716323, 3.3578429222106934, -7.893365859985352, -7.636966228485107, 75.92484283447266, 4.060165882110596, -14.301984786987305
472, 2732732990, 3.3678836822509766, -7.981197834014893, -7.379644393920898, 119.71959686279297, 5.827766418457031, 1.6787989139556885
473, 2732749657, 3.2225005626678467, -7.573904514312744, -7.0629777908325195, 169.82473754882812, 9.836996078491211, 13.121573448181152
474, 2732766324, 3.160672903060913, -7.452888011932373, -6.656924724578857, 236.3170928955078, 19.63866424560547, 12.015580177307129
475, 2732782991, 3.3994147777557373, -7.839060306549072, -6.0253071784973145, 297.8988342285156, 27.300731658935547, 5.326323509216309
476, 2732799658, 3.7610692977905273, -8.45646858215332, -5.433256149291992, 360.5721435546875, 30.315387725830078, 4.301301956176758
477, 2732816325, 3.7301084995269775, -9.068681716918945, -4.832411766052246, 448.1902160644531, 34.256996154785156, 5.347353935241699
478, 2732832992, 3.7646594047546387, -9.19530200958252, -2.9192609786987305, 572.46533203125, 30.310396194458008, 19.960508346557617
479, 2732849659, 3.5172922611236572, -8.135601997375488, 0.4066220223903656, 650.57275390625, 32.579673767089844, 48.89484405517578
480, 2732866326, 2.773219347000122, -6.797712802886963, 3.058339834213257, 663.9798583984375, 51.92083740234375, 47.29538345336914
481, 2732882993, 2.0395572185516357, -5.9432549476623535, 6.289976119995117, 611.43115234375, 84.12651824951172, 9.66808032989502
482, 2732899660, 2.1036410331726074, -6.2284088134765625, 7.8301777839660645, 478.1295166015625, 122.81329345703125, -47.18666458129883
483, 2732916327, 2.978116750717163, -7.871361255645752, 6.368471145629883, 327.23675537109375, 123.7097396850586, -70.08002471923828
484, 2732932994, 3.8400909900665283, -9.1956787109375, 5.190023422241211, 227.2309112548828, 89.82044982910156, -32.50298309326172
485, 2732949661, 3.67032790184021, -8.213920593261719, 5.2168288230896, 156.8876953125, 50.55105972290039, 15.343637466430664
486, 2732966328, 2.842881917953491, -6.375899791717529, 6.475375175476074, 123.77230834960938, 28.766592025756836, 35.71702194213867
487, 2732982995, 2.2693862915039062, -5.24100923538208, 7.090818881988525, 106.55329132080078, 22.080411911010742, 27.639345169067383
488, 2732999662, 2.1941311359405518, -5.139337539672852, 7.6474289894104, 135.23703002929688, 24.477783203125, 11.932456970214844
489, 2733016329, 1.978157877922058, -5.296722888946533, 8.726422309875488, 161.73114013671875, 46.89697265625, 10.734109878540039
490, 2733032996, 1.929835319519043, -4.9105000495910645, 8.28020191192627, 144.82562255859375, 68.7538833618164, 15.287857055664062
491, 2733049663, 1.8721202611923218, -4.52960205078125, 7.36430025100708, 125.28202056884766, 71.7781982421875, 17.936687469482422
492, 2733066330, 1.6914809942245483, -4.179805755615234, 6.990660190582275, 115.04246520996094, 56.614173889160156, 19.08686065673828
493, 2733082997, 1.4353207349777222, -3.8150742053985596, 7.396383762359619, 107.04951477050781, 35.47084045410156, 17.180973052978516
494, 2733099664, 1.2482388019561768, -3.4385197162628174, 8.174771308898926, 99.626220703125, 23.795969009399414, 12.520003318786621
495, 2733116331, 1.1122955083847046, -3.167130708694458, 8.555831909179688, 105.53913116455078, 26.48445701599121, 10.875483512878418
496, 2733132998, 1.0763211250305176, -2.7876498699188232, 8.840432167053223, 123.96595764160156, 36.22859191894531, 9.572510719299316
497, 2733149665, 1.0073269605636597, -2.4977853298187256, 9.025433540344238, 130.37701416015625, 45.342811584472656, 5.529942512512207
498, 2733166332, 1.0239866971969604, -2.4382333755493164, 8.978052139282227, 114.140380859375, 48.02017593383789, 0.5125186443328857
499, 2733182999, 1.0729387998580933, -2.5651845932006836, 8.604143142700195, 76.08827209472656, 39.7558708190918, 0.5775684714317322
500, 2733199666, 1.0949444770812988, -2.5841751098632812, 8.151761054992676, 30.374961853027344, 18.127233505249023, 5.047216415405273
501, 2733216333, 0.8792440891265869, -2.2201576232910156, 8.34311580657959, 35.6935920715332, 3.3992257118225098, 11.13955020904541
502, 2733233000, 0.5787196159362793, -1.8288143873214722, 9.122283935546875, 36.07447814941406, 2.523343086242676, 9.926384925842285
503, 2733249667, 0.5375730395317078, -1.628311038017273, 9.299925804138184, 18.691781997680664, 2.958251476287842, 3.143559694290161
504, 2733266334, 0.7477349042892456, -1.7572197914123535, 9.263167381286621, 18.994829177856445, 0.6549879908561707, -3.12630295753479
505, 2733283001, 0.7712056636810303, -2.094454288482666, 9.705622673034668, 16.916519165039062, 2.3839361667633057, -3.586127281188965
506, 2733299668, 0.7123317122459412, -1.9677332639694214, 9.472241401672363, 4.3645148277282715, 9.204804420471191, 3.8323593139648438
507, 2733316335, 0.4179076850414276, -1.4005922079086304, 9.367977142333984, -5.5894246101379395, 11.864252090454102, 5.0290632247924805
508, 2733333002, 0.6313475966453552, -1.386572241783142, 8.687165260314941, -10.819807052612305, 0.4454369843006134, 2.896022319793701
509, 2733349669, 0.7246463298797607, -1.475348711013794, 9.841894149780273, 14.317940711975098, 4.666426181793213, -0.9631406664848328
510, 2733366336, 0.7603809833526611, -1.7604182958602905, 10.477835655212402, 16.08010482788086, 18.849956512451172, -2.1232075691223145
511, 2733383003, 0.7587597966194153, -1.5583279132843018, 10.403373718261719, 18.1241512298584, 38.275413513183594, 0.39946454763412476
512, 2733399670, 0.95737624168396, -1.3414016962051392, 10.994924545288086, 39.428035736083984, 54.62001419067383, -6.146518230438232
513, 2733416337, 1.051774024963379, -2.019394874572754, 11.1110200881958, 35.15550994873047, 65.42372131347656, -6.725706577301025
514, 2733433004, 0.49971872568130493, -1.7293113470077515, 11.500020980834961, 58.83170700073242, 93.51293182373047, 13.421819686889648
515, 2733449671, 0.11287344992160797, -0.6619877815246582, 11.303803443908691, 53.274925231933594, 124.14187622070312, 16.890544891357422
516, 2733466338, -0.09860426187515259, 0.030878476798534393, 10.948468208312988, 72.39958953857422, 146.77096557617188, 5.285680770874023
517, 2733483005, -0.552204966545105, -0.16170063614845276, 11.03827953338623, 61.10209274291992, 163.9309844970703, -17.453189849853516
518, 2733499672, -0.7578219175338745, -0.5018537044525146, 10.532493591308594, 34.6561393737793, 174.343017578125, -26.830217361450195
519, 2733516339, -0.9854865074157715, -0.2499580681324005, 11.44842529296875, -31.259788513183594, 170.45445251464844, -32.158164978027344
520, 2733533006, -1.56904935836792, -0.4258687496185303, 11.65994644165039, -115.77094268798828, 166.05477905273438, -29.72182846069336
521, 2733549673, -2.289245367050171, -1.123702049255371, 11.046330451965332, -149.05999755859375, 200.3689422607422, -19.924903869628906
522, 2733566340, -2.2121493816375732, -0.7321979999542236, 8.523140907287598, -46.2244987487793, 241.9169158935547, 10.132088661193848
523, 2733583007, -3.2446446418762207, -0.05876962095499039, 7.757602691650391, 57.860862731933594, 254.90023803710938, 7.064564228057861
524, 2733599674, -3.7337658405303955, -0.5813743472099304, 6.976641654968262, 86.3743667602539, 254.68338012695312, -16.12407875061035
525, 2733616341, -3.560698986053467, -1.609582781791687, 5.938721179962158, 59.1356086730957, 237.6427459716797, -33.750999450683594
526, 2733633008, -4.020693778991699, -2.3685946464538574, 4.927495002746582, 10.674629211425781, 201.00277709960938, -28.55919647216797
527, 2733649675, -4.955770015716553, -2.0979163646698, 4.371042728424072, -21.338886260986328, 167.1348876953125, -13.642698287963867
528, 2733666342, -5.584771156311035, -1.5930448770523071, 3.498093843460083, -19.472166061401367, 137.02371215820312, -5.959939956665039
529, 2733683009, -6.377403736114502, -1.1484127044677734, 4.295259952545166, 32.46746063232422, 121.2001953125, -0.012000215239822865
530, 2733699676, -7.050271987915039, -0.8131904006004333, 5.5504937171936035, 26.47657585144043, 113.76895141601562, -3.4408602714538574
531, 2733716343, -7.506031036376953, -0.7146410942077637, 5.081337928771973, 22.580162048339844, 121.73077392578125, -9.714606285095215
532, 2733733010, -7.639772891998291, -0.813642680644989, 4.105778694152832, 16.698026657104492, 114.3835220336914, -18.49606704711914
533, 2733749677, -7.425929069519043, -1.2086765766143799, 3.084458827972412, 6.54033899307251, 90.52527618408203, -27.191862106323242
534, 2733766344, -7.491937637329102, -1.4200726747512817, 2.738333225250244, 25.649274826049805, 65.41636657714844, -26.559524536132812
535, 2733783011, -7.652838706970215, -1.5330970287322998, 3.2643144130706787, 54.84785842895508, 49.67979431152344, -21.315105438232422
536, 2733799678, -7.6983137130737305, -1.7063509225845337, 3.7877302169799805, 54.423831939697266, 47.82315444946289, -17.932100296020508
537, 2733816345, -7.722970485687256, -1.7264381647109985, 3.814730405807495, 38.77334976196289, 45.57948684692383, -13.849534034729004
538, 2733833012, -7.920979022979736, -1.5738646984100342, 3.6696617603302, 20.18734359741211, 36.55005645751953, -9.890510559082031
539, 2733849679, -8.097126960754395, -1.395329475402832, 3.8600428104400635, 11.153392791748047, 24.495851516723633, -6.528092384338379
540, 2733866346, -8.224811553955078, -1.115982174873352, 3.8990790843963623, -1.1226696968078613, 15.0056734085083, -4.107729434967041
541, 2733883013, -8.419957160949707, -0.5282727479934692, 4.140797138214111, 18.4412784576416, 12.792593002319336, -4.498929500579834
542, 2733899680, -8.64608383178711, -0.5711333155632019, 4.593009948730469, 16.09263038635254, 13.811290740966797, -15.21371078491211
543, 2733916347, -8.497117042541504, -1.0634292364120483, 4.477418899536133, -5.360109329223633, 11.434924125671387, -21.419692993164062
544, 2733933014, -8.406193733215332, -1.4325485229492188, 4.301770210266113, -33.30349349975586, 1.9475421905517578, -19.00532341003418
545, 2733949681, -8.40042781829834, -1.2276841402053833, 4.303225517272949, -59.32640075683594, -10.190610885620117, -13.581009864807129
546, 2733966348, -8.37910270690918, -0.7793505191802979, 4.89485502243042, -34.855106353759766, -14.477031707763672, -13.066020011901855
547, 2733983015, -8.420129776000977, -0.8493836522102356, 5.938782691955566, -10.300334930419922, 0.11390631645917892, -22.464662551879883
548, 2733999682, -8.076303482055664, -1.4346413612365723, 6.07421350479126, 1.1074918508529663, 19.85639190673828, -29.250131607055664
549, 2734016349, -7.798911094665527, -2.112996816635132, 5.92332649230957, 6.728957653045654, 33.725772857666016, -27.946596145629883
550, 2734033016, -7.891861915588379, -2.2132039070129395, 5.934741020202637, -9.592122077941895, 46.69757843017578, -19.516765594482422
551, 2734049683, -7.997100830078125, -2.0293760299682617, 4.942461013793945, -34.60803985595703, 55.72813415527344, -13.749228477478027
552, 2734066350, -7.98734188079834, -1.8348822593688965, 3.854534149169922, -52.359100341796875, 52.06008529663086, -13.553101539611816
553, 2734083017, -8.083294868469238, -1.804542064666748, 3.425097942352295, -31.028364181518555, 42.49729537963867, -13.861376762390137
554, 2734099684, -8.161009788513184, -2.0462915897369385, 4.240204334259033, -6.956248760223389, 45.42829513549805, -15.104036331176758
555, 2734116351, -8.086482048034668, -2.5431432723999023, 4.419964790344238, -4.769384860992432, 62.72967529296875, -13.330567359924316
556, 2734133018, -8.143929481506348, -2.7239038944244385, 3.6421937942504883, -9.944731712341309, 79.68501281738281, -7.107635974884033
557, 2734149685, -8.21692180633545, -2.2615411281585693, 2.3540236949920654, -26.753711700439453, 78.35515594482422, -3.991323471069336
558, 2734166352, -8.597707748413086, -2.0337862968444824, 1.4809496402740479, -32.36283874511719, 62.24655532836914, -5.3480119705200195
559, 2734183019, -8.729057312011719, -2.155211925506592, 1.2565263509750366, -20.395862579345703, 42.552734375, -6.116668701171875
560, 2734199686, -8.714637756347656, -2.40568208694458, 1.7001078128814697, -6.530287742614746, 29.611948013305664, -4.940949440002441
561, 2734216353, -8.64376449584961, -2.654315710067749, 2.166658401489258, -8.675516128540039, 24.69818115234375, -2.1917989253997803
562, 2734233020, -8.65032958984375, -2.6964898109436035, 2.3921308517456055, -17.445402145385742, 23.356863021850586, 3.187516689300537
563, 2734249687, -8.880277633666992, -2.427565813064575, 2.454744577407837, -35.11705780029297, 22.141809463500977, 6.396791934967041
564, 2734266354, -9.048811912536621, -2.1173295974731445, 2.3824520111083984, -30.783658981323242, 23.57207679748535, 7.055100917816162
565, 2734283021, -8.939708709716797, -1.9608079195022583, 2.653313398361206, -18.4897403717041, 27.789960861206055, 5.7107648849487305
566, 2734299688, -8.493427276611328, -1.998696208000183, 3.13895320892334, 6.1576104164123535, 36.1939582824707, 3.8624067306518555
567, 2734316355, -8.847084045410156, -2.7622032165527344, 3.7203080654144287, 16.72890853881836, 53.61100387573242, -3.71238374710083
568, 2734333022, -8.88772964477539, -3.271087169647217, 3.363060712814331, 3.6456515789031982, 68.88328552246094, 5.850506782531738
569, 2734349689, -8.866412162780762, -2.4881975650787354, 3.0450217723846436, -7.0864129066467285, 73.09487915039062, 22.08148193359375
570, 2734366356, -9.387680053710938, -1.8650472164154053, 2.777592658996582, -18.699857711791992, 79.67231750488281, 22.66061019897461
571, 2734383023, -9.453431129455566, -1.5143697261810303, 2.1983413696289062, -31.653799057006836, 82.38475799560547, 15.287353515625
572, 2734399690, -9.301977157592773, -1.5035374164581299, 1.513156533241272, -43.29218673706055, 79.89503479003906, 7.761688709259033
573, 2734416357, -8.993414878845215, -1.7988909482955933, 0.9977496266365051, -30.391624450683594, 83.0454330444336, 3.696878671646118
574, 2734433024, -8.7836275100708, -2.1910431385040283, 0.549061119556427, -13.36221981048584, 90.38367462158203, 4.892637729644775
575, 2734449691, -8.705881118774414, -2.408027410507202, -0.030250541865825653, 2.2773947715759277, 95.48278045654297, 9.311305046081543
576, 2734466358, -8.647649765014648, -2.5035016536712646, -0.2118288278579712, 15.658390045166016, 97.32263946533203, 12.673869132995605
577, 2734483025, -8.438175201416016, -2.450127363204956, -0.26011985540390015, 15.40063762664795, 97.88142395019531, 15.864692687988281
578, 2734499692, -8.615959167480469, -2.391284465789795, -0.6271228790283203, 9.457777976989746, 104.91989135742188, 20.871490478515625
579, 2734516359, -8.934542655944824, -2.5454530715942383, -1.6467801332473755, 1.3501160144805908, 113.59171295166016, 24.796279907226562
580, 2734533026, -9.439749717712402, -2.3729984760284424, -2.46061110496521, -10.902152061462402, 107.52822875976562, 32.45183563232422
581, 2734549693, -10.227517127990723, -1.819846749305725, -3.363591194152832, -30.11993980407715, 99.83535766601562, 38.12964630126953
582, 2734566360, -10.101125717163086, -0.5629680752754211, -3.796177387237549, -54.99673843383789, 87.6851806640625, 44.84187698364258
583, 2734583027, -9.81316089630127, 0.1451122760772705, -5.309568405151367, -53.04087448120117, 79.35639953613281, 30.544998168945312
584, 2734599694, -9.392829895019531, 0.06780047714710236, -6.305722713470459, -17.58280372619629, 57.08474349975586, 7.398431301116943
585, 2734616361, -9.025747299194336, -0.7453857660293579, -7.016469478607178, 27.79594612121582, 14.734874725341797, -14.209063529968262
586, 2734633028, -8.840325355529785, -1.7303009033203125, -6.052303314208984, 57.5319938659668, -34.36001205444336, -18.749828338623047
587, 2734649695, -8.755001068115234, -2.3157060146331787, -4.22715425491333, 67.03076934814453, -58.97671890258789, -9.693209648132324
588, 2734666362, -8.866846084594727, -2.3744747638702393, -3.0998051166534424, 66.31221771240234, -58.9100341796875, 4.070265293121338
589, 2734683029, -9.063644409179688, -2.0692098140716553, -2.7034783363342285, 42.775760650634766, -55.0285758972168, 13.194967269897461
590, 2734699696, -9.147859573364258, -1.6992994546890259, -3.1479005813598633, 24.503097534179688, -65.67456817626953, 19.398723602294922
591, 2734716363, -9.323016166687012, -1.2506520748138428, -2.6695120334625244, 26.935745239257812, -84.47350311279297, 19.752824783325195
592, 2734733030, -9.51764965057373, -0.9176219701766968, -1.5268545150756836, 32.91599655151367, -98.96897888183594, 15.64999008178711
593, 2734749697, -9.762084007263184, -1.0602664947509766, -0.5715540647506714, 51.86895751953125, -98.01325988769531, 7.057122707366943
594, 2734766364, -9.549365043640137, -2.0699329376220703, -0.0327720046043396, 36.19145202636719, -86.71595764160156, 1.6364139318466187
595, 2734783031, -8.73377513885498, -2.6521530151367188, -0.4155542254447937, 4.541574954986572, -90.16841888427734, 18.927749633789062
596, 2734799698, -8.759056091308594, -2.049286365509033, -0.3141346871852875, -18.233339309692383, -102.3415756225586, 39.52928924560547
597, 2734816365, -8.984919548034668, -1.016378402709961, -0.09878827631473541, -20.137357711791992, -112.11505889892578, 47.14845275878906
598, 2734833032, -9.338447570800781, -0.15115879476070404, 0.4408719539642334, 17.973697662353516, -111.78484344482422, 40.333839416503906
599, 2734849699, -9.599895477294922, 0.2327479124069214, 1.3744767904281616, 53.401832580566406, -104.9800033569336, 23.659481048583984
600, 2734866366, -9.617958068847656, 0.00803905539214611, 2.0226848125457764, 55.726341247558594, -95.81605529785156, 4.162749767303467
601, 2734883033, -9.491883277893066, -0.9063523411750793, 1.846250057220459, 53.3883056640625, -82.1357650756836, -6.4446563720703125
602, 2734899700, -8.719423294067383, -1.7859222888946533, 1.1182961463928223, 41.54751205444336, -80.90555572509766, -1.4138365983963013
603, 2734916367, -8.378064155578613, -1.950522780418396, 0.6296396255493164, 62.553585052490234, -88.27801513671875, 19.370317459106445
604, 2734933034, -8.496264457702637, -1.0630066394805908, 1.6933026313781738, 72.57772064208984, -106.64014434814453, 38.552635192871094
605, 2734949701, -8.748017311096191, -0.030774256214499474, 3.1214473247528076, 68.84888458251953, -111.9414291381836, 43.60932922363281
606, 2734966368, -9.093493461608887, 0.351757287979126, 3.8347840309143066, 43.34324645996094, -100.0455093383789, 34.90568542480469
607, 2734983035, -8.712903022766113, -0.3566284477710724, 3.231206178665161, 13.065693855285645, -87.07176971435547, 22.67336082458496
608, 2734999702, -7.740253925323486, -1.3493590354919434, 2.2722747325897217, 14.224798202514648, -94.49020385742188, 27.848169326782227
609, 2735016369, -7.474015712738037, -1.204599380493164, 3.0813584327697754, 25.27176856994629, -105.89166259765625, 44.93648910522461
610, 2735033036, -7.702014446258545, -0.6351577639579773, 3.7534234523773193, 22.799654006958008, -107.14200592041016, 62.821834564208984
611, 2735049703, -8.036608695983887, 0.16842077672481537, 4.110945701599121, 15.779946327209473, -98.98529052734375, 71.45526123046875
612, 2735066370, -7.512938976287842, 0.401033490896225, 4.254765510559082, 5.332587718963623, -86.23670959472656, 65.95716094970703
613, 2735083037, -6.872077465057373, -0.005106083117425442, 4.450089454650879, -4.191777229309082, -57.980281829833984, 34.1241340637207
614, 2735099704, -7.005102634429932, -0.6905249357223511, 4.591669082641602, -41.94978713989258, -80.77436065673828, 46.949317932128906
615, 2735116371, -7.607999801635742, 0.6472844481468201, 5.066406726837158, -109.76453399658203, -118.18861389160156, 79.22273254394531
616, 2735133038, -7.9695539474487305, 2.4156947135925293, 6.065835952758789, -109.60752868652344, -128.7957000732422, 76.49530029296875
617, 2735149705, -7.75388240814209, 2.816427230834961, 6.494704723358154, -91.15179443359375, -111.4595947265625, 34.67669677734375
618, 2735166372, -7.155612945556641, 1.4744267463684082, 5.8131279945373535, -84.41215515136719, -92.82734680175781, -3.1536872386932373
619, 2735183039, -6.1091790199279785, -0.16099430620670319, 4.80877685546875, -103.869873046875, -102.10635375976562, -13.168571472167969
620, 2735199706, -5.809013366699219, -0.3612940311431885, 4.896934986114502, -98.41232299804688, -132.2914581298828, 4.066559791564941
621, 2735216373, -6.188699722290039, 0.3961560130119324, 6.548388957977295, -109.94834899902344, -154.55348205566406, 1.65290105342865
622, 2735233040, -5.854663372039795, 0.32810157537460327, 7.178237438201904, -125.03652954101562, -153.24954223632812, -17.068714141845703
623, 2735249707, -5.436946868896484, -0.21889902651309967, 7.279262542724609, -139.77455139160156, -147.5541534423828, -32.45375442504883
624, 2735266374, -4.649160861968994, -0.9786953330039978, 7.0166850090026855, -144.28762817382812, -146.19601440429688, -39.76765441894531
625, 2735283041, -3.9306838512420654, -1.6145637035369873, 7.309807300567627, -128.02505493164062, -153.09991455078125, -49.7470703125
626, 2735299708, -3.6652188301086426, -2.188187837600708, 7.556125164031982, -136.4954833984375, -160.83892822265625, -60.92894744873047
627, 2735316375, -3.559415578842163, -2.2342958450317383, 8.11977767944336, -137.20623779296875, -163.50807189941406, -63.50312423706055
628, 2735333042, -3.647559642791748, -2.3365559577941895, 8.3745756149292, -137.66294860839844, -159.44515991210938, -70.73843383789062
629, 2735349709, -3.0371816158294678, -2.7309517860412598, 8.314579963684082, -116.34366607666016, -155.25381469726562, -77.25113677978516
630, 2735366376, -2.1369223594665527, -3.581629991531372, 8.124227523803711, -88.67074584960938, -150.4981689453125, -85.00105285644531
631, 2735383043, -1.2213257551193237, -4.418241500854492, 8.175619125366211, -57.81747817993164, -150.4492950439453, -85.31985473632812
632, 2735399710, -1.2355449199676514, -4.681995868682861, 8.833717346191406, -28.911033630371094, -147.31532287597656, -72.00071716308594
633, 2735416377, -1.2949199676513672, -4.352820873260498, 9.803513526916504, -4.940990447998047, -135.87562561035156, -56.65896224975586
634, 2735433044, -1.2976828813552856, -4.045597553253174, 10.456378936767578, -8.533549308776855, -115.01702880859375, -53.69335174560547
635, 2735449711, -0.8798391222953796, -4.144072532653809, 10.354965209960938, -14.102700233459473, -91.17672729492188, -53.8597412109375
636, 2735466378, -0.10560213029384613, -4.761641502380371, 9.556035041809082, -10.212241172790527, -71.26093292236328, -54.095726013183594
637, 2735483045, 0.30003416538238525, -5.200821876525879, 8.891958236694336, -34.402137756347656, -59.285972595214844, -44.5709114074707
638, 2735499712, 0.6596294641494751, -5.104343414306641, 7.555682182312012, -83.58940124511719, -63.36474609375, -28.707054138183594
639, 2735516379, 0.6844966411590576, -4.505643844604492, 6.578224182128906, -94.39750671386719, -82.4224853515625, -20.54442596435547
640, 2735533046, 0.4274974465370178, -3.9247779846191406, 7.287885665893555, -33.88041305541992, -97.5599594116211, -22.76822853088379
641, 2735549713, 0.35140174627304077, -3.578862190246582, 8.949050903320312, 43.64502716064453, -83.96432495117188, -43.04965591430664
642, 2735566380, 0.6942287683486938, -4.204344749450684, 9.714411735534668, 68.19482421875, -53.920082092285156, -53.944515228271484
643, 2735583047, 1.1320862770080566, -4.9958271980285645, 9.819223403930664, 57.44709014892578, -32.792236328125, -43.39497756958008
644, 2735599714, 1.443905234336853, -5.267850875854492, 9.493898391723633, 11.523179054260254, -34.034786224365234, -26.65238380432129
645, 2735616381, 1.7386810779571533, -5.184531211853027, 9.204779624938965, -29.140247344970703, -43.67739486694336, -19.892681121826172
646, 2735633048, 1.9883474111557007, -5.234021186828613, 8.627057075500488, -45.83283233642578, -45.13648986816406, -16.906179428100586
647, 2735649715, 1.7309859991073608, -4.9487433433532715, 8.04825210571289, -51.237422943115234, -39.676483154296875, -7.6534318923950195
648, 2735666382, 1.3527354001998901, -4.262335300445557, 7.871069431304932, -45.85807418823242, -34.264225006103516, -1.3268938064575195
649, 2735683049, 1.318833589553833, -3.897304058074951, 7.497997760772705, -31.757835388183594, -22.883228302001953, -5.050557613372803
650, 2735699716, 1.2394864559173584, -3.888295888900757, 7.720756530761719, 7.238038539886475, -17.650623321533203, -10.250999450683594
651, 2735716383, 1.3662458658218384, -4.159594535827637, 8.200132369995117, 19.852493286132812, -18.579187393188477, -22.28398895263672
652, 2735733050, 1.9687433242797852, -4.869204044342041, 8.067206382751465, 35.79185485839844, -19.7054386138916, -30.276151657104492
653, 2735749717, 2.4687869548797607, -5.294301509857178, 8.420058250427246, 25.527387619018555, -27.73002052307129, -33.73828887939453
654, 2735766384, 2.7374351024627686, -5.53348970413208, 8.353538513183594, -0.5451570749282837, -34.630287170410156, -26.063066482543945
655, 2735783051, 2.546678304672241, -5.248833656311035, 8.40993595123291, -28.41529083251953, -35.082557678222656, -11.118160247802734
656, 2735799718, 2.357254981994629, -4.788556098937988, 8.270747184753418, -40.22218704223633, -27.077472686767578, -3.106910228729248
657, 2735816385, 2.3143985271453857, -4.595162868499756, 8.012472152709961, -24.013769149780273, -16.201309204101562, -2.2698938846588135
658, 2735833052, 2.421520948410034, -4.604946613311768, 7.917644500732422, -2.4345648288726807, -7.259601593017578, -4.889888763427734
659, 2735849719, 2.521547555923462, -4.8187947273254395, 7.789211273193359, 14.546443939208984, -3.9369056224823, -7.087399005889893
660, 2735866386, 2.5346648693084717, -5.005166053771973, 7.968392848968506, 13.14820671081543, -6.666414737701416, -5.977906703948975
661, 2735883053, 2.5332651138305664, -4.993578910827637, 8.13118839263916, -5.003226280212402, -12.157896041870117, -3.180523157119751
662, 2735899720, 2.5532419681549072, -4.8865838050842285, 8.119659423828125, -20.842927932739258, -14.136178016662598, -2.211085081100464
663, 2735916387, 2.4835684299468994, -4.828118324279785, 7.970773696899414, -42.937232971191406, -14.160186767578125, 0.5810410380363464
664, 2735933054, 2.3281989097595215, -4.644484996795654, 7.579568862915039, -60.341285705566406, -18.625574111938477, 2.5555624961853027
665, 2735949721, 2.4448914527893066, -4.616701602935791, 7.4571309089660645, -43.986595153808594, -18.75893211364746, -2.729081153869629
666, 2735966388, 2.5140321254730225, -4.957634449005127, 7.650496006011963, -26.20046615600586, -12.890887260437012, -8.233421325683594
667, 2735983055, 2.68792986869812, -5.326449871063232, 7.61354923248291, -46.57333755493164, -14.26339054107666, -10.37313175201416
668, 2735999722, 2.95302414894104, -5.641188144683838, 7.353601455688477, -80.16668701171875, -23.52720832824707, -8.5989990234375
669, 2736016389, 2.9848756790161133, -5.790440082550049, 7.1575493812561035, -106.84811401367188, -36.1120719909668, -6.128408432006836
670, 2736033056, 3.023414134979248, -5.949596881866455, 6.8397064208984375, -144.47528076171875, -48.39344787597656, -7.0448503494262695
671, 2736049723, 3.076944351196289, -6.1082377433776855, 6.381237030029297, -172.956298828125, -58.913333892822266, -5.02156400680542
672, 2736066390, 3.086528778076172, -6.036863803863525, 6.173664093017578, -199.65811157226562, -67.36798858642578, -10.556150436401367
673, 2736083057, 3.350277900695801, -6.294919967651367, 5.512683391571045, -197.62184143066406, -67.90737915039062, -25.924694061279297
674, 2736099724, 3.561657667160034, -6.947617053985596, 5.508818626403809, -184.70535278320312, -61.26021194458008, -37.38175582885742
675, 2736116391, 3.8303425312042236, -7.731083869934082, 4.912306308746338, -176.7904052734375, -51.99151611328125, -38.253692626953125
676, 2736133058, 3.95318865776062, -8.179032325744629, 4.515017986297607, -142.3048553466797, -43.00416564941406, -23.082866668701172
677, 2736149725, 3.9213411808013916, -8.29232120513916, 4.399654865264893, -146.07699584960938, -45.412506103515625, -9.243017196655273
678, 2736166392, 4.1031999588012695, -8.153048515319824, 3.8401458263397217, -151.8096923828125, -48.258480072021484, -5.546670913696289
679, 2736183059, 4.188356399536133, -7.991506099700928, 3.5829920768737793, -157.12844848632812, -41.0545654296875, -7.263233661651611
680, 2736199726, 4.28843879699707, -8.12741756439209, 2.705965042114258, -177.48619079589844, -36.764163970947266, -13.801831245422363
681, 2736216393, 4.469674110412598, -8.611775398254395, 2.0550637245178223, -159.0680389404297, -33.091453552246094, -16.993793487548828
682, 2736233060, 4.485904693603516, -9.077370643615723, 1.9814425706863403, -159.2328643798828, -36.41545867919922, -15.857571601867676
683, 2736249727, 4.505213737487793, -9.295722007751465, 1.3833599090576172, -152.59963989257812, -41.80489730834961, -5.2741851806640625
684, 2736266394, 4.302587509155273, -8.947351455688477, 1.2248996496200562, -134.6361846923828, -43.312652587890625, 7.434490203857422
685, 2736283061, 4.397862911224365, -8.507692337036133, 1.1277527809143066, -117.27299499511719, -32.405738830566406, 11.818967819213867
686, 2736299728, 4.3384881019592285, -8.568710327148438, 0.8721480965614319, -121.17208099365234, -17.685659408569336, 2.6252293586730957
687, 2736316395, 4.540464878082275, -9.05068588256836, -0.19927509129047394, -107.84468841552734, -10.627073287963867, -4.569008827209473
688, 2736333062, 4.884203910827637, -9.260473251342773, -0.6115299463272095, -92.63258361816406, -12.765494346618652, 2.5301709175109863
689, 2736349729, 4.56741189956665, -8.783465385437012, -0.8796939253807068, -113.5242919921875, -26.8374080657959, 13.751416206359863
690, 2736366396, 4.291676044464111, -8.29614543914795, -0.9134466052055359, -94.68205261230469, -28.728715896606445, 18.04311752319336
691, 2736383063, 4.03983736038208, -7.980479717254639, -0.5858783721923828, -98.89551544189453, -22.126760482788086, 10.077383041381836
692, 2736399730, 3.8973422050476074, -8.15738582611084, -1.4855843782424927, -92.847900390625, -15.854462623596191, -3.006359100341797
693, 2736416397, 4.130670070648193, -8.606922149658203, -1.9926773309707642, -78.00911712646484, -18.674610137939453, -11.075032234191895
694, 2736433064, 4.232211589813232, -8.87406063079834, -2.1689939498901367, -60.47796630859375, -28.74116325378418, -9.686763763427734
695, 2736449731, 4.25805139541626, -8.872893333435059, -1.5398703813552856, -54.56584167480469, -23.962020874023438, -4.886093616485596
696, 2736466398, 4.212498188018799, -8.671246528625488, -1.937572717666626, -57.09996795654297, -14.355940818786621, -1.7141382694244385
697, 2736483065, 4.228422164916992, -8.559643745422363, -2.3863720893859863, -39.519813537597656, -8.109078407287598, 0.8711761236190796
698, 2736499732, 4.233683109283447, -8.493138313293457, -2.5729854106903076, -11.360084533691406, -3.8551487922668457, 4.833266258239746
699, 2736516399, 4.110292434692383, -8.426163673400879, -2.647509813308716, 25.126853942871094, 0.24229028820991516, 7.878350734710693
700, 2736533066, 4.118244647979736, -8.289783477783203, -2.261874198913574, 71.53115844726562, 12.775093078613281, 7.70560359954834
701, 2736549733, 4.199941158294678, -8.592704772949219, -2.0686514377593994, 107.72357940673828, 27.822702407836914, 0.6365993022918701
702, 2736566400, 4.270087718963623, -8.934961318969727, -2.0389230251312256, 127.5697250366211, 24.913381576538086, 5.9138712882995605
703, 2736583067, 4.3487958908081055, -9.012596130371094, -1.4747745990753174, 150.61788940429688, 23.834848403930664, 5.225541114807129
704, 2736599734, 4.350977420806885, -9.174532890319824, -0.9558201432228088, 148.46539306640625, 18.109487533569336, 6.831836700439453
705, 2736616401, 4.318209648132324, -9.306268692016602, -0.5773141384124756, 176.9910430908203, 18.21761703491211, 10.014220237731934
706, 2736633068, 4.353978157043457, -9.249744415283203, 0.12027573585510254, 221.57498168945312, 24.431852340698242, 15.121816635131836
707, 2736649735, 4.251190662384033, -8.861252784729004, 0.8925047516822815, 247.0204315185547, 30.268901824951172, 24.060386657714844
708, 2736666402, 4.053041458129883, -8.337794303894043, 1.4658427238464355, 272.0864562988281, 34.981849670410156, 29.22979736328125
709, 2736683069, 3.77463960647583, -7.795233249664307, 2.432098865509033, 280.04656982421875, 37.692176818847656, 26.788677215576172
710, 2736699736, 3.8123066425323486, -7.556586742401123, 2.8363304138183594, 296.000732421875, 41.25947570800781, 17.103986740112305
711, 2736716403, 3.74834942817688, -7.500237941741943, 4.04115629196167, 320.0127868652344, 41.79731750488281, 7.876832962036133
712, 2736733070, 3.740999937057495, -7.503716945648193, 5.237386226654053, 292.8471984863281, 44.59321975708008, 4.185507297515869
713, 2736749737, 3.8042941093444824, -7.437252044677734, 5.598506450653076, 263.318115234375, 51.09910583496094, 6.712070465087891
714, 2736766404, 3.563420057296753, -7.037389755249023, 6.274079322814941, 236.18502807617188, 53.643672943115234, 13.15591812133789
715, 2736783071, 3.3640968799591064, -6.527225494384766, 6.568560600280762, 179.42437744140625, 53.6058464050293, 15.461909294128418
716, 2736799738, 3.325540542602539, -6.052192687988281, 6.240540504455566, 144.10736083984375, 51.07339859008789, 15.320414543151855
717, 2736816405, 3.1584300994873047, -5.6521148681640625, 6.294644832611084, 130.6474609375, 42.25575637817383, 14.005599975585938
718, 2736833072, 3.050950288772583, -5.3290510177612305, 6.713163375854492, 138.09640502929688, 34.94576644897461, 12.923940658569336
719, 2736849739, 2.8922290802001953, -5.148626327514648, 7.325939178466797, 129.89869689941406, 32.77265930175781, 10.61304759979248
720, 2736866406, 2.7934350967407227, -4.851966381072998, 7.537448883056641, 123.76070404052734, 34.15687561035156, 11.08629322052002
721, 2736883073, 2.794544219970703, -4.502879619598389, 8.00944709777832, 134.04330444335938, 36.2242317199707, 8.286816596984863
722, 2736899740, 2.7688682079315186, -4.37148380279541, 8.207179069519043, 128.6880340576172, 40.99268341064453, 4.952604293823242
723, 2736916407, 2.5767807960510254, -4.144522190093994, 8.52387809753418, 130.8977508544922, 48.68586730957031, 6.53977632522583
724, 2736933074, 2.368741750717163, -3.7556540966033936, 8.284995079040527, 116.6918716430664, 55.61885070800781, 9.053991317749023
725, 2736949741, 2.214369297027588, -3.2355127334594727, 8.00924015045166, 111.41748809814453, 56.135528564453125, 7.505517482757568
726, 2736966408, 2.0350213050842285, -2.946146011352539, 8.082819938659668, 111.10196685791016, 50.95661544799805, 2.6320226192474365
727, 2736983075, 1.8615978956222534, -2.7558510303497314, 8.374711036682129, 104.52124786376953, 49.290687561035156, -0.9259555339813232
728, 2736999742, 1.6365957260131836, -2.284576177597046, 8.655280113220215, 120.31021881103516, 51.965091705322266, -0.4428319036960602
729, 2737016409, 1.3601044416427612, -1.672472357749939, 9.166228294372559, 145.27085876464844, 62.13982391357422, -5.4394001960754395
730, 2737033076, 1.3052729368209839, -1.285659670829773, 9.213733673095703, 164.33294677734375, 72.8929443359375, -12.503938674926758
731, 2737049743, 1.229025959968567, -1.215396523475647, 9.304447174072266, 172.21771240234375, 71.72492218017578, -13.980634689331055
732, 2737066410, 1.3301972150802612, -1.2763686180114746, 8.92507553100586, 157.24160766601562, 71.15991973876953, -12.328590393066406
733, 2737083077, 1.1935917139053345, -0.790779173374176, 8.718461990356445, 167.73585510253906, 66.05201721191406, -3.8510613441467285
734, 2737099744, 0.6909526586532593, 0.150356262922287, 9.11794662475586, 177.82882690429688, 70.23759460449219, -2.016120195388794
735, 2737116411, 0.2784214913845062, 1.1444770097732544, 9.255417823791504, 200.22105407714844, 82.8545150756836, -8.167078018188477
736, 2737133078, -0.0880761593580246, 1.7392799854278564, 9.20130729675293, 223.5662384033203, 91.45561218261719, -15.221773147583008
737, 2737149745, 0.05733824521303177, 1.9482717514038086, 8.961946487426758, 235.31698608398438, 94.45117950439453, -18.727394104003906
738, 2737166412, -0.1580764353275299, 2.4758689403533936, 8.759841918945312, 260.4351806640625, 96.03102111816406, -17.403303146362305
739, 2737183079, -0.5032612085342407, 3.2102174758911133, 8.883665084838867, 274.66998291015625, 102.93211364746094, -17.53596305847168
740, 2737199746, -0.8216208219528198, 4.086301326751709, 8.510814666748047, 280.2821960449219, 107.77088928222656, -18.18918228149414
741, 2737216413, -1.2275395393371582, 5.077678680419922, 8.284664154052734, 283.6650085449219, 112.11053466796875, -21.95718002319336
742, 2737233080, -1.624072790145874, 6.037536144256592, 7.791043758392334, 288.9842224121094, 117.7716293334961, -33.78151321411133
743, 2737249747, -1.9476393461227417, 6.600162506103516, 7.452711582183838, 298.4158935546875, 124.86255645751953, -49.336822509765625
744, 2737266414, -2.067532539367676, 5.650730133056641, 8.285731315612793, 196.05845642089844, 111.64962005615234, -56.54506301879883
745, 2737283081, -1.4501856565475464, 4.953563690185547, 3.9790916442871094, 83.3130874633789, 58.944095611572266, -34.49665069580078
746, 2737299748, -2.068488359451294, 5.723672389984131, 4.797105312347412, 78.17074584960938, 26.182117462158203, -3.4166371822357178
747, 2737316415, -2.5432963371276855, 6.730490207672119, 5.212228298187256, 56.2918815612793, 8.66508674621582, 3.529937744140625
748, 2737333082, -2.79813551902771, 7.050723075866699, 5.567834377288818, 39.59267044067383, 7.353235721588135, 1.9381300210952759
749, 2737349749, -2.796666383743286, 7.120078086853027, 5.4403076171875, 30.130226135253906, 9.414588928222656, 1.2762788534164429
750, 2737366416, -2.744875192642212, 7.103589057922363, 5.2529802322387695, 19.100004196166992, 9.315986633300781, 1.398141860961914
751, 2737383083, -2.643109083175659, 7.141529083251953, 5.242074966430664, 7.277369499206543, 4.242519855499268, 2.427360773086548
752, 2737399750, -2.511504650115967, 6.884449481964111, 5.224991321563721, -9.677735328674316, -0.9056652784347534, 2.0554773807525635
753, 2737416417, -2.4872045516967773, 6.750452518463135, 5.553537845611572, -32.679161071777344, -6.734245777130127, 7.3296356201171875
754, 2737433084, -2.4106271266937256, 6.9522247314453125, 5.792975425720215, -60.95931625366211, -14.224860191345215, 16.24764060974121
755, 2737449751, -2.5563807487487793, 7.41946268081665, 6.001138210296631, -70.63292694091797, -12.990081787109375, 17.30358123779297
756, 2737466418, -2.4007742404937744, 7.420001029968262, 6.148375034332275, -69.33483123779297, -10.141654014587402, 7.31973123550415
757, 2737483085, -2.361778974533081, 6.943347930908203, 6.4686055183410645, -87.72906494140625, -12.484354019165039, -5.74062442779541
758, 2737499752, -2.3815248012542725, 6.518430233001709, 6.803971767425537, -124.16911315917969, -18.735441207885742, -9.719254493713379
759, 2737516419, -2.456209897994995, 6.171315670013428, 7.1126389503479, -164.98455810546875, -22.46211814880371, -10.612099647521973
760, 2737533086, -2.6559042930603027, 5.500392913818359, 7.379122257232666, -221.052490234375, -16.902790069580078, -15.16586971282959
761, 2737549753, -2.3702003955841064, 4.6341776847839355, 6.714151859283447, -218.0074920654297, -1.4985554218292236, 1.8571226596832275
762, 2737566420, -2.2429444789886475, 4.713050842285156, 6.636600971221924, -176.2133331298828, 2.993906259536743, 21.814672470092773
763, 2737583087, -2.5052905082702637, 4.758103370666504, 6.971596717834473, -168.8315887451172, -5.381879806518555, 20.8302001953125
764, 2737599754, -2.3707563877105713, 4.47655725479126, 7.209944725036621, -174.84645080566406, -22.59891128540039, 14.183923721313477
765, 2737616421, -2.390824317932129, 3.9312379360198975, 7.961541652679443, -179.1607208251953, -37.00199890136719, 8.339399337768555
766, 2737633088, -1.9926429986953735, 3.261502504348755, 8.576131820678711, -207.2938232421875, -49.0509033203125, 2.5791568756103516
767, 2737649755, -1.9271223545074463, 2.6787402629852295, 9.15249252319336, -225.31869506835938, -57.838836669921875, -0.8279155492782593
768, 2737666422, -1.8640494346618652, 2.1024460792541504, 9.259748458862305, -269.39764404296875, -66.38864135742188, -8.443202018737793
769, 2737683089, -1.5912361145019531, 1.2440707683563232, 8.909774780273438, -319.890869140625, -87.67219543457031, -14.34625244140625
770, 2737699756, -0.8763467073440552, 0.1363230049610138, 8.419109344482422, -312.8829650878906, -111.39400482177734, -12.554098129272461
771, 2737716423, -0.6776323318481445, -0.6770439147949219, 8.953808784484863, -198.92269897460938, -105.713623046875, 1.133750319480896
772, 2737733090, -0.7220312356948853, -1.1750779151916504, 10.177770614624023, -138.9587860107422, -59.700157165527344, 10.541563034057617
773, 2737749757, -0.614831805229187, -1.469285488128662, 9.43874740600586, -93.08330535888672, -10.357890129089355, 17.857702255249023
774, 2737766424, -0.775939404964447, -1.5987032651901245, 9.442187309265137, -32.46636199951172, 11.942400932312012, 24.489961624145508
775, 2737783091, -0.606535792350769, -1.8054190874099731, 10.29617691040039, -26.85768699645996, -0.18916335701942444, 21.281299591064453
776, 2737799758, -0.3465350270271301, -2.3080596923828125, 11.208894729614258, -46.44148254394531, -14.148100852966309, 18.209897994995117
777, 2737816425, -0.18416985869407654, -2.813641309738159, 11.8661470413208, -74.53934478759766, -7.973315238952637, 22.026418685913086
778, 2737833092, -0.18619826436042786, -2.9063737392425537, 11.525178909301758, -86.36553955078125, 13.3722505569458, 36.767433166503906
779, 2737849759, -0.34245842695236206, -2.5058107376098633, 11.110806465148926, -84.71286010742188, 30.786760330200195, 46.46353530883789
780, 2737866426, -0.9652526378631592, -1.885467529296875, 10.514472961425781, -78.64311218261719, 46.058040618896484, 45.88282775878906
781, 2737883093, -1.360703945159912, -1.5765995979309082, 9.8929443359375, -66.68260955810547, 59.50123596191406, 40.4077033996582
782, 2737899760, -1.5739407539367676, -1.2997900247573853, 9.107583999633789, -56.16671371459961, 77.45726013183594, 34.20608139038086
783, 2737916427, -1.592798113822937, -1.2001957893371582, 7.646301746368408, -32.89619827270508, 93.66654968261719, 15.977219581604004
784, 2737933094, -1.8704817295074463, -1.6679348945617676, 7.024245262145996, -16.625761032104492, 94.91364288330078, -6.602914810180664
785, 2737949761, -1.9043571949005127, -2.3134467601776123, 6.943215370178223, -23.689523696899414, 64.31322479248047, -21.4775447845459
786, 2737966428, -1.9802029132843018, -3.1391732692718506, 7.499412536621094, -33.5950927734375, 25.533220291137695, -30.592947006225586
787, 2737983095, -1.9153236150741577, -3.7607858180999756, 8.348421096801758, -21.321470260620117, 5.847748756408691, -19.631399154663086
788, 2737999762, -2.011486530303955, -4.314371109008789, 9.987161636352539, -21.940275192260742, 26.572921752929688, 3.6158175468444824
789, 2738016429, -1.1207813024520874, -4.649450778961182, 9.576537132263184, 48.3509635925293, 156.12522888183594, 65.979248046875
790, 2738033096, -3.1480157375335693, -2.491689682006836, 11.157405853271484, 109.71381378173828, 206.21429443359375, 68.57318878173828
791, 2738049763, -3.3971996307373047, -1.3231514692306519, 9.592552185058594, 51.772979736328125, 241.0270233154297, 26.013263702392578
792, 2738066430, -3.808943748474121, -1.619801640510559, 7.215843200683594, 68.1684799194336, 238.30841064453125, -7.349236011505127
793, 2738083097, -4.158919334411621, -2.162391185760498, 6.161909580230713, 138.5736541748047, 210.9386444091797, -12.108617782592773
794, 2738099764, -4.409219264984131, -2.5141866207122803, 6.31931734085083, 162.00430297851562, 179.03274536132812, -6.051566123962402
795, 2738116431, -4.68884801864624, -2.2782979011535645, 6.001996040344238, 150.1895294189453, 151.24002075195312, -0.7178211212158203
796, 2738133098, -5.324650287628174, -1.4672737121582031, 6.367846488952637, 98.78569793701172, 122.57424926757812, -6.846810340881348
797, 2738149765, -5.568835735321045, -1.3453513383865356, 7.100635528564453, 36.594058990478516, 102.8429946899414, -20.396621704101562
798, 2738166432, -6.12952995300293, -1.2689992189407349, 8.308274269104004, -16.774778366088867, 114.30850982666016, -26.029613494873047
799, 2738183099, -6.419739246368408, -0.9866745471954346, 7.649477958679199, -24.909921646118164, 149.3825225830078, -25.843299865722656
800, 2738199766, -6.688902854919434, -0.6185920834541321, 6.248859882354736, -2.517791748046875, 175.5802001953125, -28.59627342224121
801, 2738216433, -6.869985580444336, -0.48422643542289734, 4.354104995727539, 27.990509033203125, 169.3138885498047, -42.389625549316406
802, 2738233100, -7.002849102020264, -1.1873115301132202, 3.3488640785217285, 65.31568145751953, 140.03652954101562, -55.35572814941406
803, 2738249767, -7.002072334289551, -2.2834627628326416, 3.0981762409210205, 68.66338348388672, 100.51275634765625, -54.865535736083984
804, 2738266434, -6.928408622741699, -2.919282913208008, 3.5297088623046875, 44.24951934814453, 60.867401123046875, -38.874874114990234
805, 2738283101, -7.21417236328125, -2.7357521057128906, 4.577049255371094, -3.2014176845550537, 39.0673828125, -21.2410945892334
806, 2738299768, -7.370596885681152, -2.1572484970092773, 5.1159820556640625, -42.27893829345703, 40.182804107666016, -10.402626037597656
807, 2738316435, -7.8600358963012695, -1.48223078250885, 5.23267126083374, -38.40925598144531, 57.22792053222656, -9.396357536315918
808, 2738333102, -8.374076843261719, -0.9916174411773682, 4.6256585121154785, -3.0419909954071045, 81.21844482421875, -14.023237228393555
809, 2738349769, -8.719059944152832, -0.6121623516082764, 3.8135902881622314, 34.574798583984375, 85.58533477783203, -26.812040328979492
810, 2738366436, -8.70348834991455, -1.0411267280578613, 3.298036813735962, 63.91238784790039, 73.6486587524414, -39.75857162475586
811, 2738383103, -8.421570777893066, -1.7150225639343262, 3.8770980834960938, 77.60248565673828, 61.65607833862305, -40.526649475097656
812, 2738399770, -8.130407333374023, -2.2663118839263916, 4.107295513153076, 50.85307312011719, 53.65221405029297, -37.019691467285156
813, 2738416437, -7.996479511260986, -2.3322830200195312, 4.239529132843018, 28.50193977355957, 52.99332046508789, -29.79461097717285
814, 2738433104, -8.087508201599121, -2.087270975112915, 3.889355182647705, 14.979253768920898, 55.988059997558594, -25.472959518432617
815, 2738449771, -8.04876708984375, -2.2403206825256348, 3.098109722137451, 19.605682373046875, 56.38719940185547, -26.800302505493164
816, 2738466438, -8.106668472290039, -2.3037991523742676, 2.8321805000305176, 47.39485549926758, 54.15077590942383, -23.390602111816406
817, 2738483105, -8.170434951782227, -1.9813016653060913, 2.7001867294311523, 84.73181915283203, 54.54611587524414, -19.48582649230957
818, 2738499772, -8.635074615478516, -1.3170446157455444, 2.975658893585205, 137.29368591308594, 62.712188720703125, -21.333913803100586
819, 2738516439, -9.692334175109863, -1.3330848217010498, 2.6062099933624268, 161.59202575683594, 68.90411376953125, -28.831195831298828
820, 2738533106, -8.85645866394043, -1.3200972080230713, 3.197061538696289, 148.20425415039062, 66.27114868164062, -31.980758666992188
821, 2738549773, -8.949016571044922, -1.8240151405334473, 2.0275962352752686, 117.4629135131836, 54.54922866821289, -44.04576110839844
822, 2738566440, -8.79710865020752, -2.7419748306274414, 2.003793239593506, 74.992919921875, 28.12541961669922, -38.74590301513672
823, 2738583107, -8.290922164916992, -3.257779836654663, 1.9097764492034912, 29.050153732299805, 5.479942798614502, -17.256500244140625
824, 2738599774, -8.354785919189453, -2.491448402404785, 2.5309934616088867, 2.5949318408966064, -5.668296813964844, 4.229240417480469
825, 2738616441, -8.802947998046875, -1.395551323890686, 2.5818536281585693, -6.770900249481201, -7.969357013702393, 7.568460941314697
826, 2738633108, -9.017524719238281, -0.9942105412483215, 2.7263739109039307, 18.713090896606445, -5.258435249328613, -2.103023052215576
827, 2738649775, -8.954663276672363, -1.465696096420288, 3.0859217643737793, 38.310646057128906, -1.9600480794906616, -11.000740051269531
828, 2738666442, -8.804362297058105, -1.9759628772735596, 3.1311707496643066, 38.104034423828125, 0.9029741883277893, -9.216524124145508
829, 2738683109, -8.829689979553223, -1.95658540725708, 3.2534749507904053, 24.274913787841797, 0.01555334310978651, -1.01974618434906
830, 2738699776, -9.074605941772461, -1.3647900819778442, 3.4039406776428223, 16.77368927001953, 1.6007120609283447, 1.9061181545257568
831, 2738716443, -9.146247863769531, -1.1813503503799438, 3.2864878177642822, 20.766691207885742, 9.617182731628418, -1.9559941291809082
832, 2738733110, -9.033926963806152, -1.2495675086975098, 3.0192766189575195, 33.1333122253418, 12.084707260131836, -3.8225457668304443
833, 2738749777, -9.156591415405273, -0.9899352788925171, 3.0992562770843506, 42.85146713256836, 12.134947776794434, -8.712798118591309
834, 2738766444, -9.080415725708008, -1.2542628049850464, 3.041433334350586, 46.531593322753906, 13.92245101928711, -14.684430122375488
835, 2738783111, -8.838438034057617, -1.7457555532455444, 2.939845561981201, 36.17524719238281, 11.885199546813965, -14.332963943481445
836, 2738799778, -8.711341857910156, -1.9279760122299194, 2.769322633743286, 22.955276489257812, 8.450769424438477, -7.376115798950195
837, 2738816445, -8.771818161010742, -1.576972484588623, 2.944406747817993, 23.915424346923828, 9.973103523254395, -3.007847547531128
838, 2738833112, -8.869941711425781, -1.5484553575515747, 2.742633104324341, 21.651121139526367, 11.650032043457031, -2.5834178924560547
839, 2738849779, -8.960742950439453, -1.3616763353347778, 2.6636080741882324, 25.5227108001709, 11.200984001159668, -3.044602870941162
840, 2738866446, -9.082169532775879, -1.182726502418518, 2.6918656826019287, 38.26065444946289, 11.450101852416992, -6.344443321228027
841, 2738883113, -9.063606262207031, -1.3547523021697998, 2.682424783706665, 44.7292366027832, 11.865283966064453, -9.19736099243164
842, 2738899780, -9.09751033782959, -1.3296254873275757, 2.6578943729400635, 47.35136032104492, 11.6138916015625, -9.410009384155273
843, 2738916447, -9.03955078125, -1.514782190322876, 2.66703724861145, 45.105716705322266, 11.80026912689209, -9.675134658813477
844, 2738933114, -8.991114616394043, -1.6065202951431274, 2.595566511154175, 39.29819869995117, 9.130782127380371, -6.870570182800293
845, 2738949781, -9.02714729309082, -1.3164249658584595, 2.4983112812042236, 38.568485260009766, 7.757367134094238, -4.218959808349609
846, 2738966448, -9.056010246276855, -0.9944784045219421, 2.4671638011932373, 54.79788589477539, 10.549545288085938, -6.224851131439209
847, 2738983115, -8.960407257080078, -1.0584602355957031, 2.304555892944336, 76.42560577392578, 14.960065841674805, -9.827972412109375
848, 2738999782, -9.297261238098145, -1.4480786323547363, 1.9470577239990234, 94.31867218017578, 18.785911560058594, -8.917046546936035
849, 2739016449, -8.609824180603027, -1.335080623626709, 2.2501492500305176, 93.69082641601562, 15.192678451538086, -7.189574241638184
850, 2739033116, -8.968822479248047, -1.6408592462539673, 1.6375948190689087, 69.47762298583984, -4.638322830200195, -7.00295352935791
851, 2739049783, -9.002152442932129, -1.2848321199417114, 2.2962520122528076, 62.42686462402344, -20.32318115234375, -1.3995249271392822
852, 2739066450, -9.11801815032959, -0.9208548665046692, 3.2027087211608887, 59.34601974487305, -22.174945831298828, -0.6038920283317566
853, 2739083117, -9.06798267364502, -0.8676339983940125, 3.6572422981262207, 50.88602828979492, -15.38527774810791, -0.8653591275215149
854, 2739099784, -8.987152099609375, -0.8513796329498291, 3.6820380687713623, 41.82373809814453, -8.69017505645752, 0.9224280714988708
855, 2739116451, -8.910942077636719, -0.791477620601654, 3.6697335243225098, 31.29146957397461, -3.52302622795105, 2.1375856399536133
856, 2739133118, -8.964381217956543, -0.641400158405304, 3.5671956539154053, 24.13500213623047, -0.5801927447319031, 3.5346555709838867
857, 2739149785, -9.081109046936035, -0.35200953483581543, 3.301767349243164, 18.003568649291992, 0.29352185130119324, 2.80397891998291
858, 2739166452, -9.13731575012207, -0.32980361580848694, 3.141763210296631, 17.205928802490234, -2.021317958831787, -0.029826022684574127
859, 2739183119, -9.195157051086426, -0.3455651104450226, 3.318781614303589, 17.969011306762695, -3.0611438751220703, -2.323343276977539
860, 2739199786, -9.057055473327637, -0.512925386428833, 3.4835474491119385, 15.994858741760254, 0.6500317454338074, -4.952925205230713
861, 2739216453, -8.941335678100586, -0.8287396430969238, 3.3785252571105957, 10.465603828430176, 5.082900524139404, -4.95620059967041
862, 2739233120, -8.985133171081543, -0.9147193431854248, 2.9742226600646973, 1.1938400268554688, 5.681492805480957, -1.173215389251709
863, 2739249787, -9.024907112121582, -0.7584037184715271, 2.7987656593322754, -1.590036392211914, 2.1776621341705322, 0.6416557431221008
864, 2739266454, -9.024386405944824, -0.9662352204322815, 2.8063416481018066, -6.5751261711120605, -1.6461155414581299, 1.3083992004394531
865, 2739283121, -8.922088623046875, -1.080413818359375, 2.8471336364746094, -11.204652786254883, -3.1202690601348877, 5.222413063049316
866, 2739299788, -8.841109275817871, -0.9181438088417053, 2.93820858001709, -11.721085548400879, -3.384106159210205, 8.557356834411621
867, 2739316455, -8.798379898071289, -0.7464455962181091, 3.0516738891601562, -8.896897315979004, -3.8130414485931396, 8.643375396728516
868, 2739333122, -8.990790367126465, -0.6581699252128601, 3.0326285362243652, -6.726370811462402, -1.9698095321655273, 7.829171180725098
869, 2739349789, -9.044718742370605, -0.5241584181785583, 2.9232017993927, -3.701791286468506, -2.5476956367492676, 6.424657821655273
870, 2739366456, -9.101789474487305, -0.6057453155517578, 3.047886610031128, -5.252628326416016, -5.5735554695129395, 5.500872611999512
871, 2739383123, -9.050008773803711, -0.7387110590934753, 3.150775909423828, -9.733113288879395, -5.174408912658691, 6.597227096557617
872, 2739399790, -8.911681175231934, -0.9530821442604065, 3.180917501449585, -18.068584442138672, -3.471345901489258, 9.478090286254883
873, 2739416457, -8.843976974487305, -1.2058621644973755, 3.077702522277832, -34.451908111572266, -5.3497138023376465, 15.54382038116455
874, 2739433124, -8.863908767700195, -1.1773842573165894, 3.033845901489258, -50.942039489746094, -8.348235130310059, 25.039396286010742
875, 2739449791, -8.991707801818848, -0.39634138345718384, 2.8646655082702637, -49.98572540283203, -11.368927955627441, 30.583459854125977
876, 2739466458, -9.139120101928711, 0.15644040703773499, 3.0363717079162598, -36.00770568847656, -11.672478675842285, 22.110368728637695
877, 2739483125, -8.987497329711914, -0.39179861545562744, 3.2153186798095703, -29.016618728637695, -8.979947090148926, 11.341324806213379
878, 2739499792, -8.79082202911377, -1.1717368364334106, 3.269151449203491, -38.76504898071289, -7.862763404846191, 14.544703483581543
879, 2739516459, -8.883326530456543, -1.2047924995422363, 3.009150981903076, -57.41352081298828, -10.62778091430664, 24.52435874938965
880, 2739533126, -8.809551239013672, -0.9371511936187744, 2.949493646621704, -73.48612213134766, -18.219911575317383, 31.823108673095703
881, 2739549793, -8.800694465637207, -0.549010157585144, 3.052274703979492, -79.12617492675781, -25.661848068237305, 33.8433952331543
882, 2739566460, -8.926582336425781, -0.34780943393707275, 3.2099292278289795, -82.71540832519531, -28.598358154296875, 29.545793533325195
883, 2739583127, -8.907782554626465, -0.7216662168502808, 3.3673079013824463, -84.13674926757812, -28.262239456176758, 26.88926124572754
884, 2739599794, -8.755952835083008, -1.1745364665985107, 3.556519031524658, -103.64024353027344, -30.63019561767578, 30.797395706176758
885, 2739616461, -8.668742179870605, -0.9718212485313416, 3.6616315841674805, -130.78652954101562, -36.159454345703125, 36.09755325317383
886, 2739633128, -8.744637489318848, -0.7040700912475586, 3.5748634338378906, -149.43264770507812, -40.42482376098633, 35.13482666015625
