sep=,
DeviceTag:,15,,,,,,,,,,,,,,,,,
FirmwareVersion:,2.2.1,,,,,,,,,,,,,,,,,
AppVersion:,2023.0.0,,,,,,,,,,,,,,,,,
StartTime:,2023-07-14 13:21:32.000 +0900,,,,,,,,,,,,,,,,,
© Movella Technologies B. V. 2005-2023,,,,,,,,,,,,,,,,,,,

PacketCounter,SampleTimeFine,Euler_X,Euler_Y,Euler_Z,Acc_X,Acc_Y,Acc_Z,Gyr_X,Gyr_Y,Gyr_Z,
0, 54096985, 1.0107805728912354, -0.2989141345024109, -78.44480895996094, 0.0, 0.0, 0.0, 0.0, 0.0, 0.0, 
1, 54113652, 1.016073226928711, -0.2840406894683838, -78.45037078857422, 0.05159394443035126, 0.176761195063591, 9.212763786315918, -0.004930444527417421, 0.07456497102975845, 0.2663528621196747, 
2, 54130319, 1.028290033340454, -0.28143763542175293, -78.40343475341797, 0.05141155421733856, 0.17216219007968903, 9.172481536865234, -0.05081559345126152, 0.07047974318265915, 0.24011263251304626, 
3, 54146986, 1.0391411781311035, -0.28268933296203613, -78.39303588867188, 0.05947590246796608, 0.18025872111320496, 9.162418365478516, 0.08110901713371277, 0.09504232555627823, 0.23194220662117004, 
4, 54163653, 1.0490597486495972, -0.28722822666168213, -78.35514068603516, 0.05374324321746826, 0.18414248526096344, 9.182559967041016, -0.02786661498248577, 0.14424431324005127, 0.2253725230693817, 
5, 54180320, 1.0587621927261353, -0.2904098927974701, -78.34302520751953, 0.03414206951856613, 0.1740001142024994, 9.175228118896484, -0.009015670046210289, 0.154886394739151, 0.3327409327030182, 
6, 54196987, 1.0666619539260864, -0.2891443371772766, -78.30281066894531, 0.044727399945259094, 0.16389723122119904, 9.166996002197266, 0.07785619795322418, 0.11961770802736282, 0.2876626253128052, 
7, 54213654, 1.0705397129058838, -0.2883470356464386, -78.26008605957031, 0.051740407943725586, 0.1586010605096817, 9.175235748291016, 0.05816003680229187, 0.059786438941955566, 0.27536851167678833, 
8, 54230321, 1.0696572065353394, -0.2883761525154114, -78.22193908691406, 0.05067156255245209, 0.15143075585365295, 9.179816246032715, -0.06641372293233871, 0.04181913658976555, 0.2040499895811081, 
9, 54246988, 1.0688395500183105, -0.2875090539455414, -78.23051452636719, 0.04323992133140564, 0.15217119455337524, 9.19262981414795, 0.06554930657148361, 0.1163392961025238, 0.2753685414791107, 
10, 54263655, 1.0670276880264282, -0.2867952287197113, -78.20809936523438, 0.051200561225414276, 0.16515283286571503, 9.167911529541016, 0.06963451951742172, 0.07208053767681122, 0.28110578656196594, 
11, 54280322, 1.0639739036560059, -0.2870379388332367, -78.20962524414062, 0.046447694301605225, 0.16900087893009186, 9.16607666015625, -0.03200305998325348, 0.029512230306863785, 0.23683422803878784, 
12, 54296989, 1.0617750883102417, -0.2855358123779297, -78.19782257080078, 0.055542074143886566, 0.18172140419483185, 9.19262981414795, -0.013920503668487072, 0.12457378208637238, 0.23356862366199493, 
13, 54313656, 1.0605683326721191, -0.2845214307308197, -78.17412567138672, 0.04971996322274208, 0.1688651740550995, 9.180728912353516, -0.017211733385920525, 0.11555808782577515, 0.23029018938541412, 
14, 54330323, 1.0601367950439453, -0.28384286165237427, -78.14395904541016, 0.03752514347434044, 0.1724947839975357, 9.18072509765625, 0.019664151594042778, 0.09422271698713303, 0.23602740466594696, 
15, 54346990, 1.0609177350997925, -0.282632976770401, -78.16123962402344, 0.04004279151558876, 0.1743687093257904, 9.156925201416016, 0.07538457214832306, 0.09665592014789581, 0.28111857175827026, 
16, 54363657, 1.0605039596557617, -0.28207871317863464, -78.15469360351562, 0.05075714364647865, 0.16815315186977386, 9.20637035369873, -0.010706108994781971, 0.04262593761086464, 0.2688117027282715, 
17, 54380324, 1.0618212223052979, -0.28078654408454895, -78.16860961914062, 0.04883310943841934, 0.16994494199752808, 9.18256664276123, 0.09342872351408005, 0.09582351893186569, 0.2696569263935089, 
18, 54396991, 1.061842679977417, -0.2800854444503784, -78.23794555664062, 0.04582909494638443, 0.16928334534168243, 9.20910930633545, 0.013914098963141441, 0.063090480864048, 0.19176866114139557, 
19, 54413658, 1.0619328022003174, -0.2786981165409088, -78.23479461669922, 0.044770482927560806, 0.17572732269763947, 9.201784133911133, 0.0188701543956995, 0.09997276216745377, 0.1565256118774414, 
20, 54430325, 1.0608501434326172, -0.27677401900291443, -78.24261474609375, 0.035354387015104294, 0.1712145060300827, 9.193538665771484, -0.060612455010414124, 0.13036222755908966, 0.17780974507331848, 
21, 54446992, 1.062901496887207, -0.276195764541626, -78.19871520996094, 0.04507053643465042, 0.15912680327892303, 9.18348217010498, 0.12536773085594177, 0.03676062077283859, 0.15738362073898315, 
22, 54463659, 1.0629101991653442, -0.2757337987422943, -78.19384002685547, 0.051386576145887375, 0.1621989905834198, 9.189887046813965, 0.013875682838261127, 0.031138643622398376, 0.20980004966259003, 
23, 54480326, 1.0641010999679565, -0.2743021249771118, -78.14598846435547, 0.04217778891324997, 0.1686539351940155, 9.18072509765625, 0.09178952127695084, 0.09744992107152939, 0.25408440828323364, 
24, 54496993, 1.0647602081298828, -0.27408313751220703, -78.14627075195312, 0.04468471184372902, 0.16888996958732605, 9.170658111572266, 0.05891561135649681, 0.023710953071713448, 0.3106372058391571, 
25, 54513660, 1.0645471811294556, -0.27238568663597107, -78.19972229003906, 0.0455501452088356, 0.1800331473350525, 9.203607559204102, 0.004936848301440477, 0.10982085764408112, 0.22126172482967377, 
26, 54530327, 1.0654717683792114, -0.27120646834373474, -78.18276977539062, 0.05071790888905525, 0.15898045897483826, 9.202704429626465, 0.0639100968837738, 0.07943138480186462, 0.2196609228849411, 
27, 54546994, 1.0647307634353638, -0.27242597937583923, -78.18171691894531, 0.03682786598801613, 0.17839571833610535, 9.191697120666504, -0.028033098205924034, -0.05897323414683342, 0.28683018684387207, 
28, 54563661, 1.0647343397140503, -0.2708015739917755, -78.15214538574219, 0.0361018143594265, 0.17923235893249512, 9.176133155822754, 0.00984808150678873, 0.10654882341623306, 0.25159353017807007, 
29, 54580328, 1.0651347637176514, -0.26951903104782104, -78.13392639160156, 0.04862203821539879, 0.1691579669713974, 9.174320220947266, 0.02783459983766079, 0.08030220866203308, 0.2761881351470947, 
30, 54596995, 1.066021203994751, -0.2684219181537628, -78.14794158935547, 0.04567903280258179, 0.17381814122200012, 9.18438720703125, 0.05735323205590248, 0.0728745311498642, 0.23931865394115448, 
31, 54613662, 1.0656633377075195, -0.2689792811870575, -78.16007995605469, 0.04729883000254631, 0.16297835111618042, 9.1898832321167, -0.018979009240865707, -0.027021395042538643, 0.21470485627651215, 
32, 54630329, 1.066206932067871, -0.26805734634399414, -78.15681457519531, 0.05470166727900505, 0.16840359568595886, 9.208197593688965, 0.03925786167383194, 0.06717570871114731, 0.3540635406970978, 
33, 54646996, 1.0663113594055176, -0.26771414279937744, -78.16087341308594, 0.03896275907754898, 0.15572232007980347, 9.185298919677734, 0.013017652556300163, 0.0360562764108181, 0.32700371742248535, 
34, 54663663, 1.0662418603897095, -0.2662579417228699, -78.1606674194336, 0.04345449432730675, 0.15574024617671967, 9.1880521774292, 0.008189660497009754, 0.09917876124382019, 0.27536851167678833, 
35, 54680330, 1.066918134689331, -0.2661658227443695, -78.15876770019531, 0.06243342533707619, 0.1602856069803238, 9.19721508026123, 0.058902811259031296, 0.017141301184892654, 0.2712833285331726, 
36, 54696997, 1.0668039321899414, -0.2635953724384308, -78.14852905273438, 0.053292665630578995, 0.174193874001503, 9.18255615234375, 0.01323536317795515, 0.1721109300851822, 0.21716369688510895, 
37, 54713664, 1.0661399364471436, -0.26230061054229736, -78.1399917602539, 0.04368694871664047, 0.16966958343982697, 9.177974700927734, -0.022116562351584435, 0.09839758276939392, 0.26058998703956604, 
38, 54730331, 1.065779447555542, -0.2601286768913269, -78.1436767578125, 0.04893682152032852, 0.1741684526205063, 9.1798095703125, -0.0048408000729978085, 0.15082676708698273, 0.2991243004798889, 
39, 54746998, 1.0664691925048828, -0.2591647505760193, -78.13713073730469, 0.03848700225353241, 0.1787601113319397, 9.183464050292969, 0.056533634662628174, 0.07861178368330002, 0.2475147396326065, 
40, 54763665, 1.06661856174469, -0.2577257752418518, -78.1467514038086, 0.061131637543439865, 0.1687716841697693, 9.20362663269043, 0.01967695727944374, 0.10489040613174438, 0.26225486397743225, 
41, 54780332, 1.0683907270431519, -0.2550441026687622, -78.12177276611328, 0.0443306639790535, 0.15148456394672394, 9.20178508758545, 0.117338165640831, 0.185058131814003, 0.27621373534202576, 
42, 54796999, 1.0684587955474854, -0.2537034749984741, -78.10676574707031, 0.04205622524023056, 0.16094736754894257, 9.190792083740234, 0.019651344045996666, 0.1049032136797905, 0.3253517150878906, 
43, 54813666, 1.0687419176101685, -0.2533174753189087, -78.11808776855469, 0.05736594274640083, 0.1664438396692276, 9.196306228637695, 0.03515983372926712, 0.0450335256755352, 0.25980880856513977, 
44, 54830333, 1.0698456764221191, -0.2517950236797333, -78.0868911743164, 0.043565358966588974, 0.17847777903079987, 9.199028015136719, 0.08365748077630997, 0.11544283479452133, 0.21146485209465027, 
45, 54847000, 1.0704314708709717, -0.25037118792533875, -78.08452606201172, 0.045081667602062225, 0.1731957197189331, 9.193531036376953, 0.050015196204185486, 0.10976961255073547, 0.2671852707862854, 
46, 54863667, 1.0713422298431396, -0.2511330246925354, -78.07251739501953, 0.06040214002132416, 0.18792611360549927, 9.2063627243042, 0.06781602650880814, -0.02139941230416298, 0.2598472535610199, 
47, 54880334, 1.070744514465332, -0.2504909932613373, -78.07389831542969, 0.05128281190991402, 0.17073528468608856, 9.185302734375, -0.02707262523472309, 0.0648193508386612, 0.21797049045562744, 
48, 54897001, 1.0707669258117676, -0.2504425346851349, -78.0942611694336, 0.04930517077445984, 0.17249120771884918, 9.178890228271484, 0.010533222928643227, 0.031164253130555153, 0.26635289192199707, 
49, 54913668, 1.0700350999832153, -0.24872465431690216, -78.09503936767578, 0.05561717599630356, 0.16608621180057526, 9.177069664001465, -0.035204652696847916, 0.13370467722415924, 0.32121527194976807, 
50, 54930335, 1.069814682006836, -0.24783514440059662, -78.08401489257812, 0.042471036314964294, 0.16786716878414154, 9.175228118896484, -0.004136451054364443, 0.08528388291597366, 0.317155659198761, 
51, 54947002, 1.0702648162841797, -0.24591538310050964, -78.0635986328125, 0.05324972793459892, 0.16872188448905945, 9.17341136932373, 0.03614592179656029, 0.14502550661563873, 0.2868430018424988, 
52, 54963669, 1.0693321228027344, -0.24443353712558746, -78.0574722290039, 0.050971806049346924, 0.1505151242017746, 9.173415184020996, -0.04665352776646614, 0.11978419125080109, 0.24908991158008575, 
53, 54980336, 1.069736361503601, -0.24316111207008362, -78.05155181884766, 0.037063874304294586, 0.18706442415714264, 9.186200141906738, 0.03766987472772598, 0.1097952276468277, 0.3556899130344391, 
54, 54997003, 1.0701533555984497, -0.24367211759090424, -78.0433120727539, 0.04036828503012657, 0.16517068445682526, 9.178890228271484, 0.034980542957782745, 7.875904557295144E-4, 0.3614528179168701, 
55, 55013670, 1.0707751512527466, -0.24255050718784332, -78.03861236572266, 0.034013308584690094, 0.17077462375164032, 9.169724464416504, 0.04751795902848244, 0.09747552126646042, 0.30160871148109436, 
56, 55030337, 1.0696163177490234, -0.2421763390302658, -78.03755950927734, 0.041959814727306366, 0.17362473905086517, 9.214594841003418, -0.059920910745859146, 0.04934926703572273, 0.2785957455635071, 
57, 55047004, 1.069800853729248, -0.24179868400096893, -78.02474975585938, 0.05287422612309456, 0.17524130642414093, 9.186232566833496, 0.020381305366754532, 0.04998958483338356, 0.28438419103622437, 
58, 55063671, 1.069968342781067, -0.23945549130439758, -78.02876281738281, 0.048125021159648895, 0.16890785098075867, 9.20362377166748, 0.018140194937586784, 0.169677734375, 0.37616729736328125, 
59, 55080338, 1.0697345733642578, -0.2389233261346817, -78.02049255371094, 0.04218851774930954, 0.1680602878332138, 9.20361614227295, -0.005020088981837034, 0.06152811273932457, 0.32453209161758423, 
60, 55097005, 1.0690209865570068, -0.24060624837875366, -78.01895904541016, 0.0511934757232666, 0.16249942779541016, 9.189897537231445, -0.034052081406116486, -0.07199729979038239, 0.359775185585022, 
61, 55113672, 1.0683425664901733, -0.23910710215568542, -78.02143096923828, 0.04497789219021797, 0.1642768681049347, 9.20637035369873, -0.031145041808485985, 0.12060379981994629, 0.36793285608291626, 
62, 55130339, 1.0689762830734253, -0.23841847479343414, -77.99703216552734, 0.04011424258351326, 0.16328594088554382, 9.188971519470215, 0.04827352985739708, 0.07041571289300919, 0.32047247886657715, 
63, 55147006, 1.0697252750396729, -0.23856647312641144, -77.9921646118164, 0.07012942433357239, 0.1623454988002777, 9.202747344970703, 0.05636715143918991, 0.019561700522899628, 0.29425790905952454, 
64, 55163673, 1.0689185857772827, -0.23924115300178528, -77.9877700805664, 0.05005617439746857, 0.1818215250968933, 9.194472312927246, -0.03558884561061859, -0.007222780957818031, 0.4154956042766571, 
65, 55180340, 1.065209150314331, -0.23883678019046783, -77.98282623291016, 0.035425908863544464, 0.16621853411197662, 9.159661293029785, -0.21098460257053375, 0.06293679773807526, 0.6407464146614075, 
66, 55197007, 1.028613567352295, -0.23240305483341217, -77.9620361328125, 0.10077570378780365, 0.5239102244377136, 9.225759506225586, -2.1787188053131104, 0.44471967220306396, 1.8128477334976196, 
67, 55213674, 0.9873377680778503, -0.24464580416679382, -76.4204330444336, -1.7172969579696655, 3.643806219100952, 8.952752113342285, -2.1275055408477783, 0.9202021360397339, 92.1951904296875, 
68, 55230341, 1.0686616897583008, -0.28569236397743225, -75.27356719970703, -3.2169394493103027, 0.4344644546508789, 9.333561897277832, 4.729493618011475, -1.4261255264282227, 67.3321762084961, 
69, 55247008, 1.1436845064163208, -0.2615208625793457, -75.36046600341797, -0.6994509100914001, -0.5457119941711426, 9.166450500488281, 3.9956653118133545, 0.8066145181655884, -4.911427974700928, 
70, 55263675, 1.0464730262756348, -0.16988100111484528, -75.17704772949219, 6.2364912033081055, 0.8914743661880493, 9.360594749450684, -6.157849311828613, 5.158638954162598, 14.499945640563965, 
71, 55280342, 1.182590365409851, -0.202614426612854, -73.88813018798828, -0.23945683240890503, -0.019978750497102737, 9.02347183227539, 7.978390216827393, -0.28738105297088623, 80.02738952636719, 
72, 55297009, 1.157345175743103, -0.17852473258972168, -72.9792709350586, -1.0944405794143677, 0.183446004986763, 9.221413612365723, -1.7490957975387573, 2.6160106658935547, 52.80076217651367, 
73, 55313676, 1.1629351377487183, -0.17376647889614105, -73.4696273803711, -0.9339251518249512, 0.299572229385376, 9.21603012084961, -0.15185172855854034, -0.34475433826446533, -29.50518035888672, 
74, 55330343, 1.165916919708252, -0.14744971692562103, -74.26629638671875, 0.19831731915473938, 0.0017891543684527278, 9.172416687011719, -0.35051265358924866, 0.46399059891700745, -47.89066696166992, 
75, 55347010, 1.163203239440918, -0.1488053947687149, -74.35906982421875, 0.595873236656189, 0.062222920358181, 9.22515869140625, -0.5404407978057861, -0.3170340061187744, -5.63343620300293, 
76, 55363677, 1.1563721895217896, -0.06953210383653641, -73.89864349365234, 0.4583710730075836, -1.1433807611465454, 9.252267837524414, -0.6966351866722107, 5.255086421966553, 27.45189094543457, 
77, 55380344, 1.084502935409546, 0.007849541492760181, -73.76415252685547, 0.6875078082084656, -2.1127138137817383, 9.223053932189941, -4.500978469848633, 4.788821220397949, 7.907194137573242, 
78, 55397011, 1.241257905960083, -0.13048037886619568, -73.75371551513672, -0.026026468724012375, -0.016095302999019623, 9.170679092407227, 9.449329376220703, -8.225598335266113, 0.7212091088294983, 
79, 55413678, 1.1735116243362427, -0.049431633204221725, -73.74951171875, 0.12009473890066147, 0.29568588733673096, 9.210138320922852, -4.002599239349365, 4.92063570022583, 0.07500679790973663, 
80, 55430345, 1.2248315811157227, -0.10902423411607742, -73.74171447753906, 0.038366034626960754, 0.18710239231586456, 9.158717155456543, 3.13016676902771, -3.502326011657715, 0.4693399667739868, 
81, 55447012, 1.1970956325531006, -0.07798157632350922, -73.73577880859375, 0.009793081320822239, 0.1297222077846527, 9.137598037719727, -1.6151494979858398, 1.9329262971878052, 0.24399936199188232, 
82, 55463679, 1.198894739151001, -0.08137389272451401, -73.72991180419922, 0.04787826165556908, 0.2008862942457199, 9.2100248336792, 0.16194267570972443, -0.13506856560707092, 0.28108012676239014, 
83, 55480346, 1.2033179998397827, -0.08633053302764893, -73.72408294677734, 0.008078652434051037, 0.15768928825855255, 9.19524097442627, 0.3165729343891144, -0.22661474347114563, 0.2824056148529053, 
84, 55497013, 1.1978929042816162, -0.08583267033100128, -73.71798706054688, 0.035490281879901886, 0.18488633632659912, 9.220020294189453, -0.273274689912796, 0.09823109954595566, 0.2911715507507324, 
85, 55513680, 1.197564721107483, -0.09874105453491211, -73.71490478515625, -0.1224028468132019, 0.2050132304430008, 9.13127326965332, 0.03255373612046242, -0.7091068029403687, 0.12705178558826447, 
86, 55530347, 1.162276029586792, -0.44681596755981445, -73.78462982177734, -0.07709109038114548, 0.3344423174858093, 9.295368194580078, -2.0886480808258057, -20.918350219726562, -3.825716733932495, 
87, 55547014, 0.9443346261978149, -0.6986419558525085, -74.66209411621094, -1.0375930070877075, -0.22948631644248962, 9.466108322143555, -13.567999839782715, -16.038131713867188, -52.43227767944336, 
88, 55563681, 0.9076439738273621, -0.9706242084503174, -76.56656646728516, 0.424370139837265, -0.030253781005740166, 8.904623031616211, -3.79502010345459, -18.224740982055664, -114.04376220703125, 
89, 55580348, 0.9463819265365601, -1.1656510829925537, -76.74635314941406, 1.1631323099136353, 2.2213199138641357, 9.55853271484375, 2.184041738510132, -11.92961311340332, -11.94394302368164, 
90, 55597015, 0.6699928641319275, -1.7797770500183105, -75.92686462402344, 0.39860159158706665, -0.21257492899894714, 9.281797409057617, -15.453364372253418, -36.118404388427734, 48.13070297241211, 
91, 55613682, 0.5346257090568542, -2.173804998397827, -75.07909393310547, 0.33032238483428955, -0.37979811429977417, 9.279342651367188, -6.488495826721191, -23.0574893951416, 49.35586929321289, 
92, 55630349, 0.5216403007507324, -2.6900150775909424, -74.46866607666016, 0.05751914530992508, -0.6581715941429138, 9.022007942199707, 0.7002373337745667, -30.580045700073242, 35.56361770629883, 
93, 55647016, 0.5014420747756958, -3.325164556503296, -73.9251708984375, -0.42999619245529175, -0.868641197681427, 9.891168594360352, 0.4752413034439087, -37.791439056396484, 31.591222763061523, 
94, 55663683, 0.2644230127334595, -4.754189968109131, -73.47319030761719, -1.025354027748108, -0.9123578667640686, 9.823427200317383, -12.190677642822266, -85.60092163085938, 27.526514053344727, 
95, 55680350, 0.06430026143789291, -6.584632396697998, -72.96626281738281, -0.9032101035118103, 0.12131544947624207, 9.77730655670166, -8.804245948791504, -109.92374420166016, 30.480512619018555, 
96, 55697017, -0.40985703468322754, -8.79566478729248, -73.04103088378906, -0.2669582962989807, 1.0102006196975708, 10.08169937133789, -28.862953186035156, -132.98211669921875, -4.966549873352051, 
97, 55713684, -0.8653649687767029, -11.75795841217041, -73.49118041992188, 0.7794276475906372, 0.6117311716079712, 9.839154243469238, -32.04067611694336, -177.88943481445312, -28.65038299560547, 
98, 55730351, -1.3624144792556763, -15.261041641235352, -74.36660766601562, 2.0470468997955322, 0.24122551083564758, 9.689879417419434, -42.031455993652344, -209.6795196533203, -55.23115539550781, 
99, 55747018, -2.0522661209106445, -19.41107940673828, -75.5453109741211, 3.2653286457061768, 0.1352299153804779, 9.363402366638184, -62.81733322143555, -247.37783813476562, -76.27041625976562, 
100, 55763685, -3.3600656986236572, -24.14476203918457, -76.87622833251953, 4.901740550994873, -0.2669922113418579, 8.963393211364746, -108.05361938476562, -280.7064208984375, -87.611083984375, 
101, 55780352, -4.506943225860596, -29.491193771362305, -77.79984283447266, 5.260001182556152, -0.5898338556289673, 5.518954277038574, -93.77662658691406, -317.0380554199219, -71.4740982055664, 
102, 55797019, -2.473611831665039, -36.36289596557617, -79.46978759765625, 8.039926528930664, -0.526352047920227, 7.129833698272705, 67.36151123046875, -406.60833740234375, -109.19588470458984, 
103, 55813686, -0.9498129487037659, -45.207637786865234, -80.3069076538086, 10.562989234924316, -0.740081787109375, 4.145316123962402, 58.41337585449219, -529.2982177734375, -53.99942398071289, 
104, 55830353, 0.8442110419273376, -55.90685272216797, -79.99510955810547, 10.757209777832031, 0.05005696415901184, 1.0064473152160645, 121.83110809326172, -641.5775756835938, 11.178646087646484, 
105, 55847020, 6.829286098480225, -68.80809020996094, -83.42288970947266, 10.137686729431152, -0.20249640941619873, -3.142526149749756, 174.99697875976562, -777.6239624023438, -43.796974182128906, 
106, 55863687, 19.158864974975586, -74.34748077392578, -100.53012084960938, 12.265198707580566, 6.353950500488281, 20.142303466796875, -235.6086883544922, -391.7364807128906, -241.4318084716797, 
107, 55880354, 24.42159080505371, -67.85084533691406, -111.91969299316406, 17.85552978515625, -0.21991513669490814, 2.4190237522125244, -331.68475341796875, 278.42047119140625, -349.2750549316406, 
108, 55897021, 21.043466567993164, -64.77338409423828, -112.29401397705078, 9.896076202392578, -0.431287944316864, -1.2734726667404175, -223.33987426757812, 167.24755859375, -79.62979888916016, 
109, 55913688, 25.58938217163086, -67.2870864868164, -118.1289291381836, 6.055463790893555, -0.718630313873291, -1.692962884902954, -47.39949417114258, -193.85122680664062, -71.00149536132812, 
110, 55930355, 32.180152893066406, -71.31439208984375, -125.61257934570312, 8.37509536743164, 0.5273446440696716, 3.565460205078125, -25.05467414855957, -286.7372131347656, -22.566158294677734, 
111, 55947022, 36.12815856933594, -73.8193130493164, -130.4019012451172, 7.635863304138184, 1.4839261770248413, 2.46628999710083, -37.466819763183594, -171.62503051757812, 12.888317108154297, 
112, 55963689, 43.58440017700195, -76.64749145507812, -137.6659393310547, 5.563139915466309, 1.4772326946258545, 0.9009552597999573, 25.650056838989258, -200.23876953125, 23.131755828857422, 
113, 55980356, 57.5458869934082, -79.62254333496094, -151.06207275390625, 5.196089744567871, 0.662358820438385, 0.6874909996986389, 50.54902648925781, -239.06700134277344, 32.048377990722656, 
114, 55997023, 76.58186340332031, -81.98188018798828, -169.46023559570312, 4.095558166503906, 0.5290023684501648, 1.3527507781982422, 51.891571044921875, -215.37623596191406, 60.0744514465332, 
115, 56013690, 96.98339080810547, -83.67987823486328, 170.4882354736328, 3.659255027770996, 1.0310392379760742, 1.3945305347442627, 30.01219367980957, -153.96263122558594, 91.63045501708984, 
116, 56030357, 116.72410583496094, -85.2181625366211, 151.34559631347656, 3.0979998111724854, 0.6987678408622742, 0.6516459584236145, 41.05084991455078, -78.73690795898438, 119.03527069091797, 
117, 56047024, 145.90472412109375, -86.75756072998047, 122.99561309814453, 2.9556784629821777, -0.058423709124326706, 0.7870760560035706, 53.66935729980469, -28.700786590576172, 144.95155334472656, 
118, 56063691, -161.11016845703125, -87.75370788574219, 70.3190689086914, 5.350337982177734, -0.6087509989738464, 1.124961018562317, 21.563215255737305, 34.365440368652344, 151.7483673095703, 
119, 56080358, -91.83965301513672, -86.4128646850586, 1.4639278650283813, 9.81551742553711, -1.3070642948150635, 0.6379499435424805, 28.879661560058594, 120.10163879394531, 170.81431579589844, 
120, 56097025, -92.06493377685547, -83.94152069091797, 1.8204753398895264, 29.945322036743164, -0.4758329391479492, -5.598653793334961, 7.885486125946045, -6.435202598571777, 147.88893127441406, 
121, 56113692, -86.939697265625, -84.68861389160156, -3.8681769371032715, 9.330981254577637, -2.5430259704589844, 0.7604570388793945, -32.03760528564453, 34.21119689941406, -45.1385383605957, 
122, 56130359, -78.34860229492188, -86.34248352050781, -13.777702331542969, 11.389603614807129, -0.7130335569381714, -1.2440727949142456, -77.21761322021484, 34.13368225097656, -104.18745422363281, 
123, 56147026, -104.08614349365234, -87.12499237060547, 11.426451683044434, 17.883657455444336, 0.955452561378479, -0.4526681900024414, -34.241249084472656, -83.64277648925781, -47.78638458251953, 
124, 56163693, -132.92103576660156, -86.84049224853516, 40.157249450683594, 12.644022941589355, -0.6673712730407715, -1.2757633924484253, -8.462848663330078, -85.94417572021484, -28.330751419067383, 
125, 56180360, -150.01962280273438, -86.52587890625, 56.835575103759766, 10.194954872131348, -0.7867531180381775, -2.2053983211517334, -26.770645141601562, -49.641170501708984, -33.52442169189453, 
126, 56197027, -165.7095489501953, -85.91309356689453, 72.33128356933594, 7.945712089538574, 0.14535260200500488, -1.1329989433288574, -13.555242538452148, -55.73497772216797, -42.94379806518555, 
127, 56213694, -176.44198608398438, -85.68702697753906, 82.94769287109375, 5.580448150634766, 0.17003397643566132, 0.409129798412323, -8.586538314819336, -19.49327278137207, -43.958412170410156, 
128, 56230361, 178.63487243652344, -86.21467590332031, 87.81031036376953, 3.603402853012085, -0.14308948814868927, 0.10918137431144714, -4.282632350921631, 32.22995376586914, -21.21446990966797, 
129, 56247028, -174.1086883544922, -87.02053833007812, 80.77867126464844, 2.449323892593384, -0.15777036547660828, 0.14519989490509033, 14.26363754272461, 50.17952346801758, 22.925323486328125, 
130, 56263695, -147.29554748535156, -87.73548889160156, 54.34539794921875, 3.1210947036743164, -0.4000174105167389, -0.17153243720531464, 24.44383430480957, 64.10090637207031, 54.04638671875, 
131, 56280362, -104.44145202636719, -87.33979797363281, 12.05042552947998, 4.447361946105957, -0.5200383067131042, 0.05196192488074303, 35.73714828491211, 74.34748077392578, 80.30899810791016, 
132, 56297029, -87.92121887207031, -86.07305145263672, -4.104065418243408, 25.959749221801758, 0.06047142669558525, -0.7913106679916382, 23.5789794921875, 47.991851806640625, 80.69692993164062, 
133, 56313696, -88.68162536621094, -83.7255859375, -2.5749566555023193, 11.496269226074219, -1.5475751161575317, -4.7847185134887695, 45.90775680541992, -3.0270795822143555, 140.9890899658203, 
134, 56330363, -80.07572937011719, -83.85478210449219, -11.36731243133545, 9.219179153442383, -2.4144389629364014, 0.19247907400131226, -7.9006547927856445, 57.246185302734375, -13.320189476013184, 
135, 56347030, -63.7397346496582, -84.32867431640625, -28.118549346923828, 9.694419860839844, -1.2413270473480225, -0.08290977776050568, -19.44498634338379, 90.5038070678711, -58.885658264160156, 
136, 56363697, -52.9583740234375, -84.59391021728516, -39.21986389160156, 9.916585922241211, -0.30010929703712463, 0.9416864514350891, -15.90645694732666, 47.589420318603516, -47.29459762573242, 
137, 56380364, -44.62696838378906, -84.76636505126953, -47.64655303955078, 9.751733779907227, -0.6665540337562561, -0.39734378457069397, -3.3909964561462402, 29.67209815979004, -38.7020378112793, 
138, 56397031, -30.99004364013672, -84.23211669921875, -61.51683044433594, 9.861709594726562, -0.595921516418457, -0.9787934422492981, -10.025553703308105, 75.19709014892578, -43.46246337890625, 
139, 56413698, -18.01871109008789, -82.51507568359375, -74.94591522216797, 9.873294830322266, -0.2570560872554779, -0.5024311542510986, -22.068490982055664, 132.9814910888672, -42.05107879638672, 
140, 56430365, -9.562402725219727, -79.58821868896484, -84.07398986816406, 9.523824691772461, -0.3948597311973572, -0.33551931381225586, -33.6733512878418, 191.7764892578125, -40.97595977783203, 
141, 56447032, -4.254745006561279, -75.05168914794922, -90.47850036621094, 9.217751502990723, -0.5407483577728271, 0.29682859778404236, -56.56437683105469, 281.53045654296875, -51.04841613769531, 
142, 56463699, -2.7038016319274902, -67.34593200683594, -93.78886413574219, 9.957793235778809, 0.9513610601425171, -0.5740664601325989, -95.11034393310547, 466.8857727050781, -35.88103103637695, 
143, 56480366, -3.081425428390503, -55.03541946411133, -94.10232543945312, 6.460519790649414, -0.25998416543006897, -2.4975461959838867, -38.98511505126953, 740.0601806640625, 28.318105697631836, 
144, 56497033, -0.4904891848564148, -37.68058776855469, -94.59518432617188, 1.115620732307434, -1.5223169326782227, 2.4127256870269775, 132.8647918701172, 1043.7198486328125, 12.088425636291504, 
145, 56513700, 0.5469232201576233, -16.307472229003906, -96.29916381835938, -1.2043014764785767, -3.4399571418762207, -1.364231824874878, 14.923795700073242, 1284.384765625, -92.22471618652344, 
146, 56530367, 0.2038487046957016, -2.405489921569824, -96.57795715332031, -7.028044700622559, 7.106907844543457, 2.8384737968444824, -23.004640579223633, 836.0845336914062, -21.98564910888672, 
147, 56547034, 0.1668148636817932, -1.7153304815292358, -97.20018005371094, -4.838406562805176, -3.0266661643981934, 16.117345809936523, -3.7483463287353516, 42.92115783691406, -37.454803466796875, 
148, 56563701, 0.13976983726024628, -1.7230404615402222, -97.32311248779297, -0.32923078536987305, -0.522266149520874, 9.070789337158203, -1.8595848083496094, 0.7656084895133972, -7.4042229652404785, 
149, 56580368, 0.1533052921295166, -1.7190200090408325, -97.31723022460938, 0.16450071334838867, 0.006853574421256781, 9.129396438598633, 0.8393346071243286, 1.4379675388336182, 0.3189229667186737, 
150, 56597035, 0.16795174777507782, -1.7028026580810547, -97.30669403076172, 0.17411190271377563, 0.05642442777752876, 9.185881614685059, 0.9196304678916931, 2.1536121368408203, 0.5921080112457275, 
151, 56613702, 0.12899735569953918, -1.650432825088501, -97.30477142333984, 0.17802496254444122, 0.06568282097578049, 9.188786506652832, -2.310034990310669, 4.305398464202881, 0.06862282752990723, 
152, 56630369, 0.06435143202543259, -1.571564793586731, -97.33729553222656, 0.009690415114164352, 0.026565510779619217, 9.21373462677002, -3.908306121826172, 5.877455711364746, -1.999340295791626, 
153, 56647036, 0.08182678371667862, -1.5078456401824951, -98.06395721435547, -0.1680237352848053, 0.09531491249799728, 9.224618911743164, -0.10100436210632324, 4.890233993530273, -43.63175964355469, 
154, 56663703, 0.09397640079259872, -1.4698545932769775, -98.85248565673828, -0.5784050226211548, 0.10745227336883545, 9.18019962310791, -0.4884892702102661, 3.2945940494537354, -47.3441047668457, 
155, 56680370, 0.07805011421442032, -1.3811722993850708, -99.7800064086914, 0.8837240934371948, 0.300244003534317, 9.232423782348633, -2.3408472537994385, 6.262470245361328, -55.6912727355957, 
156, 56697037, -0.06136384606361389, -1.264056921005249, -99.21978759765625, 1.2157875299453735, 0.18447653949260712, 9.142327308654785, -7.603470802307129, 8.092592239379883, 33.553009033203125, 
157, 56713704, -0.04017467424273491, -1.3471697568893433, -97.52291107177734, 0.1640755534172058, -0.36513766646385193, 9.124649047851562, 3.585005760192871, -3.9556028842926025, 101.7315673828125, 
158, 56730371, 0.03357362002134323, -1.396672248840332, -96.80194091796875, -0.8632335066795349, -0.27846989035606384, 9.296625137329102, 5.49400520324707, -1.8644375801086426, 43.19635009765625, 
159, 56747038, 0.03821029141545296, -1.4115835428237915, -96.81890106201172, 0.11112388968467712, -0.03126200661063194, 9.116095542907715, 0.3080887198448181, 0.1334613710641861, -1.0701626539230347, 
160, 56763705, 0.04196125268936157, -1.4271552562713623, -96.81434631347656, 0.07947047799825668, 0.03156718239188194, 9.177974700927734, 0.29154297709465027, 0.07962348312139511, 0.21836745738983154, 
161, 56780372, 0.03992285951972008, -1.4417568445205688, -96.80902862548828, 0.06931762397289276, 0.021839898079633713, 9.19617748260498, -0.05402998998761177, 0.12139778584241867, 0.2621651887893677, 
162, 56797039, 0.04057838395237923, -1.4562777280807495, -96.80278778076172, 0.07891599088907242, 0.017855828627943993, 9.170390129089355, 0.11029469966888428, 0.10791271179914474, 0.3163488507270813, 
163, 56813706, 0.03878325596451759, -1.4696096181869507, -96.79725646972656, 0.10255131870508194, 0.033362437039613724, 9.196099281311035, -0.03581935912370682, 0.16250616312026978, 0.27164188027381897, 
164, 56830373, 0.0379728265106678, -1.4833359718322754, -96.7922592163086, 0.08184865862131119, 0.02459000051021576, 9.192458152770996, 0.023608505725860596, 0.12356207519769669, 0.23705196380615234, 
165, 56847040, 0.037144288420677185, -1.4961788654327393, -96.78620910644531, 0.06351340562105179, 0.012047994881868362, 9.182308197021484, 0.024517754092812538, 0.15963754057884216, 0.30049458146095276, 
166, 56863707, 0.03638870641589165, -1.5090104341506958, -96.77961730957031, 0.08421610295772552, 0.015352657996118069, 9.182190895080566, 0.031471606343984604, 0.1430405229330063, 0.3293857276439667, 
167, 56880374, 0.03588918596506119, -1.522263765335083, -96.7728500366211, 0.07290098816156387, 0.03366999328136444, 9.19636344909668, 0.048363182693719864, 0.10085640102624893, 0.3396948277950287, 
168, 56897041, 0.03475796431303024, -1.534645676612854, -96.766357421875, 0.0860399678349495, 0.016933342441916466, 9.201435089111328, 0.010814961977303028, 0.1372520476579666, 0.32191959023475647, 
169, 56913708, 0.03370026871562004, -1.549974799156189, -96.76152801513672, 0.0915544256567955, 0.01654021441936493, 9.177567481994629, 0.013145716860890388, -0.056552838534116745, 0.22112083435058594, 
170, 56930375, 0.03360682353377342, -1.5624114274978638, -96.75580596923828, 0.09711886942386627, 0.0032326066866517067, 9.163540840148926, 0.07368133217096329, 0.1023547574877739, 0.27155226469039917, 
171, 56947042, 0.03332260996103287, -1.5746562480926514, -96.74994659423828, 0.08419822156429291, -0.004867217969149351, 9.171737670898438, 0.0644095316529274, 0.09825672209262848, 0.2806703448295593, 
172, 56963709, 0.03382240980863571, -1.5876232385635376, -96.74271392822266, 0.10782622545957565, 0.007452815771102905, 9.158942222595215, 0.11508424580097198, 0.03846387192606926, 0.3621571660041809, 
173, 56980376, 0.0336349792778492, -1.6026986837387085, -96.73739624023438, 0.1149357259273529, 0.04673745483160019, 9.1650972366333, 0.07209333777427673, -0.10193853825330734, 0.24459487199783325, 
174, 56997043, 0.03152095153927803, -1.6162490844726562, -96.7313232421875, 0.08117976039648056, 0.010953851975500584, 9.275519371032715, -0.04359281063079834, -0.023281943053007126, 0.2897116243839264, 
175, 57013710, 0.029863394796848297, -1.6242306232452393, -96.72630310058594, 0.03620552271604538, -0.02783004567027092, 9.247714042663574, -0.01584145426750183, 0.2941298186779022, 0.22630740702152252, 
176, 57030377, 0.029312610626220703, -1.6369199752807617, -96.72036743164062, 0.06044505536556244, -0.002492616418749094, 9.129849433898926, 0.05340888351202011, -0.007338038645684719, 0.2788134813308716, 
177, 57047044, 0.028785735368728638, -1.6489053964614868, -96.71428680419922, 0.1057557538151741, -0.00821449514478445, 9.074421882629395, 0.0567641407251358, 0.018037743866443634, 0.28571605682373047, 
178, 57063711, 0.027287760749459267, -1.6561647653579712, -96.70918273925781, 0.09493042528629303, 0.005020995158702135, 9.243240356445312, -7.427683449350297E-4, 0.2882901430130005, 0.22788259387016296, 
179, 57080378, 0.027910636737942696, -1.668026089668274, -96.70382690429688, 0.11346232891082764, 0.025151465088129044, 9.23613452911377, 0.1264307051897049, -0.0025228511076420546, 0.2404712438583374, 
180, 57097045, 0.028355326503515244, -1.6800583600997925, -96.69766998291016, 0.1013568639755249, 0.049959614872932434, 9.211040496826172, 0.11805533617734909, -0.026790881529450417, 0.2884182035923004, 
181, 57113712, 0.027145620435476303, -1.6889256238937378, -96.69121551513672, 0.04153764620423317, -0.0022244008723646402, 9.100688934326172, 0.017026042565703392, 0.15007120370864868, 0.30455419421195984, 
182, 57130379, 0.025885066017508507, -1.6972993612289429, -96.68569946289062, 0.04569320008158684, 0.007899842225015163, 9.198817253112793, 0.013184135779738426, 0.16245494782924652, 0.24900025129318237, 
183, 57147046, 0.02676873654127121, -1.7087124586105347, -96.67980194091797, 0.10895988345146179, 0.03729984164237976, 9.274840354919434, 0.14379610121250153, -0.03736892715096474, 0.27079662680625916, 
184, 57163713, 0.02651972509920597, -1.7183915376663208, -96.67288970947266, 0.11066215485334396, 0.04945894703269005, 9.153252601623535, 0.07579438388347626, 0.05476635321974754, 0.3308200240135193, 
185, 57180380, 0.024519288912415504, -1.7267078161239624, -96.66838836669922, 0.07536499202251434, 0.02742593362927437, 9.100024223327637, -0.035307105630636215, 0.12280648201704025, 0.18563443422317505, 
186, 57197047, 0.023819148540496826, -1.7354542016983032, -96.66350555419922, 0.0674043521285057, 0.004534631036221981, 9.190326690673828, 0.042651545256376266, 0.08295312523841858, 0.20748205482959747, 
187, 57213714, 0.022871602326631546, -1.7437633275985718, -96.65740966796875, 0.056893881410360336, 0.0010907432297244668, 9.241631507873535, 0.030984964221715927, 0.09446604549884796, 0.2798635959625244, 
188, 57230381, 0.02240373007953167, -1.7525349855422974, -96.65165710449219, 0.06426087021827698, -0.007560102269053459, 9.1809720993042, 0.05891561880707741, 0.05020729452371597, 0.2602314352989197, 
189, 57247048, 0.0217332374304533, -1.7605881690979004, -96.6457748413086, 0.09312085807323456, 0.012523878365755081, 9.152719497680664, 0.048401594161987305, 0.07917524874210358, 0.2647136449813843, 
190, 57263715, 0.01974148117005825, -1.7669744491577148, -96.63993072509766, 0.11847617477178574, 0.031756721436977386, 9.20139217376709, -0.0313115268945694, 0.16587425768375397, 0.26490578055381775, 
191, 57280382, 0.019448723644018173, -1.7737399339675903, -96.63296508789062, 0.07808291167020798, -0.004581121727824211, 9.234936714172363, 0.07163231819868088, 0.13130991160869598, 0.3299363851547241, 
192, 57297049, 0.0200919508934021, -1.7810790538787842, -96.62620544433594, 0.07729256898164749, -5.078214453533292E-4, 9.180073738098145, 0.1282619833946228, 0.08416973799467087, 0.317680686712265, 
193, 57313716, 0.019176926463842392, -1.7875820398330688, -96.6196517944336, 0.0911611020565033, -0.005071062128990889, 9.13134479522705, 0.03444267809391022, 0.11968173831701279, 0.3058220446109772, 
194, 57330383, 0.017175130546092987, -1.7934362888336182, -96.61310577392578, 0.09185488522052765, 0.02120690979063511, 9.187673568725586, -0.030555952340364456, 0.1465366631746292, 0.30292779207229614, 
195, 57347050, 0.01647171936929226, -1.8005908727645874, -96.60758209228516, 0.07362695783376694, 0.01699771359562874, 9.239020347595215, 0.04536649212241173, 0.056482404470443726, 0.24286599457263947, 
196, 57363717, 0.01681116595864296, -1.8077555894851685, -96.60179901123047, 0.10067738592624664, 0.025058483704924583, 9.2004976272583, 0.10750290751457214, 0.04233139008283615, 0.25837454199790955, 
197, 57380384, 0.015163283795118332, -1.8118349313735962, -96.59577178955078, 0.07070163637399673, 0.0017949568573385477, 9.157259941101074, -0.01272951066493988, 0.21533235907554626, 0.2719620168209076, 
198, 57397051, 0.0140090212225914, -1.815665364265442, -96.5889663696289, 0.06035207584500313, -0.0065015447326004505, 9.165436744689941, 0.018601223826408386, 0.21748384833335876, 0.3167586922645569, 
199, 57413718, 0.014293933287262917, -1.8201637268066406, -96.58245086669922, 0.07402391731739044, 2.25301060709171E-4, 9.212152481079102, 0.1052105724811554, 0.16443994641304016, 0.3010837137699127, 
200, 57430385, 0.011614995077252388, -1.828858494758606, -96.57830810546875, 0.08927670121192932, 0.028198717162013054, 9.105399131774902, -0.07799067348241806, -0.10055546462535858, 0.15779344737529755, 
201, 57447052, 0.013112043030560017, -1.8352844715118408, -96.57356262207031, 0.10559109598398209, 0.0063263108022511005, 9.198284149169922, 0.17332755029201508, 0.024556174874305725, 0.1949574500322342, 
202, 57463719, 0.013242542743682861, -1.8378218412399292, -96.56814575195312, 0.09179756045341492, 0.019522210583090782, 9.294757843017578, 0.09158461540937424, 0.24756596982479095, 0.2338247448205948, 
203, 57480386, 0.013731621205806732, -1.8425886631011963, -96.56185913085938, 0.07678084075450897, 0.0017162773292511702, 9.235952377319336, 0.11445676535367966, 0.10212423652410507, 0.28631797432899475, 
204, 57497053, 0.013107433915138245, -1.846855878829956, -96.554931640625, 0.06606685370206833, 0.009630726650357246, 9.1189603805542, 0.048516858369112015, 0.12015556544065475, 0.32403266429901123, 
205, 57513720, 0.012044703587889671, -1.850769281387329, -96.54901885986328, 0.09549188613891602, 0.027790706604719162, 9.145613670349121, 0.01947205327451229, 0.12932491302490234, 0.26190903782844543, 
206, 57530387, 0.010555188171565533, -1.855557918548584, -96.54298400878906, 0.0953059270977974, 0.024740202352404594, 9.205085754394531, -0.0069026220589876175, 0.0668555498123169, 0.27132171392440796, 
207, 57547054, 0.009474514052271843, -1.859676718711853, -96.53753662109375, 0.08178070932626724, 0.012784941121935844, 9.240687370300293, 0.01546366699039936, 0.09737307578325272, 0.23584814369678497, 
208, 57563721, 0.010140398517251015, -1.862891674041748, -96.53125, 0.06728651374578476, 3.077599103562534E-4, 9.19661808013916, 0.12083430588245392, 0.13969804346561432, 0.2866765260696411, 
209, 57580388, 0.009485011920332909, -1.866269826889038, -96.5237808227539, 0.08670148998498917, -0.006938059348613024, 9.133153915405273, 0.04377850517630577, 0.11907985061407089, 0.35639432072639465, 
210, 57597055, 0.008410196751356125, -1.869247555732727, -96.51801300048828, 0.08865056931972504, -0.010446447879076004, 9.205411911010742, 0.014746510423719883, 0.13279543817043304, 0.253648966550827, 
211, 57613722, 0.00708487955853343, -1.8734019994735718, -96.51119232177734, 0.09461571276187897, -4.291448858566582E-4, 9.197307586669922, 0.0031439587473869324, 0.051423896104097366, 0.31846192479133606, 
212, 57630389, 0.005673705600202084, -1.8777494430541992, -96.50440979003906, 0.10477929562330246, 1.0371000826125965E-4, 9.10201644897461, -0.002740558935329318, 0.03139476478099823, 0.31495293974876404, 
213, 57647056, 0.0037334347143769264, -1.8833884000778198, -96.50006103515625, 0.1077725812792778, 0.03190692141652107, 9.200540542602539, -0.0396740697324276, -0.05537465959787369, 0.16810254752635956, 
214, 57663723, 0.003633819054812193, -1.8880367279052734, -96.49370574951172, 0.06332032382488251, 0.0035940883681178093, 9.24247932434082, 0.07365571707487106, -0.004981669597327709, 0.2903647720813751, 
215, 57680390, 0.0030991786625236273, -1.8909176588058472, -96.48772430419922, 0.07438141107559204, 0.02266933210194111, 9.206109046936035, 0.045750681310892105, 0.09034239500761032, 0.2672621011734009, 
216, 57697057, 0.0033737109042704105, -1.891994595527649, -96.48120880126953, 0.09733019024133682, 0.037046223878860474, 9.167739868164062, 0.09459409862756729, 0.1892586201429367, 0.2988169491291046, 
217, 57713724, 0.0027834351640194654, -1.8943376541137695, -96.4760513305664, 0.10062016546726227, 0.01716579496860504, 9.175596237182617, 0.03836141899228096, 0.10455743968486786, 0.218418687582016, 
218, 57730391, 0.0027836535591632128, -1.896816611289978, -96.47105407714844, 0.10495080798864365, 0.015130742453038692, 9.2130708694458, 0.07178599387407303, 0.08762744814157486, 0.20905724167823792, 
219, 57747058, 0.0017101939301937819, -1.899500846862793, -96.4653549194336, 0.08135870099067688, -0.007395771332085133, 9.189940452575684, 0.007831081748008728, 0.0677776038646698, 0.25052422285079956, 
220, 57763725, 8.0576614709571E-4, -1.902998685836792, -96.45927429199219, 0.07938102632761002, -0.013779154978692532, 9.143142700195312, 0.019753795117139816, 0.009688004851341248, 0.2764955163002014, 
221, 57780392, -1.6978123312583193E-5, -1.9046106338500977, -96.45336151123047, 0.08110123127698898, 0.013138985261321068, 9.178407669067383, 0.023621313273906708, 0.11421343684196472, 0.26420140266418457, 
222, 57797059, -1.1863347754115239E-4, -1.9064016342163086, -96.44678497314453, 0.09423663467168808, 0.013446539640426636, 9.195719718933105, 0.06758551299571991, 0.09433797001838684, 0.305437833070755, 
223, 57813726, 3.2728322548791766E-4, -1.9070366621017456, -96.44058990478516, 0.09344643354415894, 0.012363173998892307, 9.20119571685791, 0.09921719133853912, 0.15528340637683868, 0.2810417711734772, 
224, 57830393, 0.002043144777417183, -1.9072259664535522, -96.43377685546875, 0.08932320028543472, -0.011232578195631504, 9.175164222717285, 0.17505639791488647, 0.17463380098342896, 0.32007548213005066, 
225, 57847060, 0.0017500309040769935, -1.9068095684051514, -96.42688751220703, 0.08394073694944382, 0.00989178940653801, 9.170071601867676, 0.05515054240822792, 0.20257721841335297, 0.3238917887210846, 
226, 57863727, 0.01065282803028822, -1.9152055978775024, -96.42367553710938, 0.07555811107158661, 0.1067354828119278, 9.22037410736084, 0.5994076728820801, -0.33360540866851807, 0.10355855524539948, 
227, 57880394, -0.003238337580114603, -1.9043933153152466, -96.4239501953125, 0.118108831346035, -0.05738174170255661, 9.187871932983398, -0.7808158993721008, 0.8099567890167236, -0.10457663983106613, 
228, 57897061, -0.0025302825961261988, -1.9095104932785034, -96.4183578491211, 0.056396789848804474, 0.01447291113436222, 9.173100471496582, 0.10956472158432007, -0.15155035257339478, 0.24573463201522827, 
229, 57913728, -0.0034937700256705284, -1.910884141921997, -96.41112518310547, 0.08528182655572891, 0.021983057260513306, 9.18676471710205, 0.01107108872383833, 0.0641149953007698, 0.3442794978618622, 
230, 57930395, -0.005218069534748793, -1.910204529762268, -96.4029541015625, 0.08714501559734344, -0.0016128694405779243, 9.195494651794434, -0.03321966901421547, 0.18011489510536194, 0.4027276635169983, 
231, 57947062, -0.005833661183714867, -1.909497618675232, -96.3958511352539, 0.07808291167020798, 9.584235376678407E-4, 9.209338188171387, 0.02984519489109516, 0.17430081963539124, 0.33781227469444275, 
232, 57963729, -0.006397256162017584, -1.910691261291504, -96.38829803466797, 0.09422948956489563, 0.003197129350155592, 9.182709693908691, 0.034532319754362106, 0.05275575444102287, 0.3648592531681061, 
233, 57980396, -0.006832816172391176, -1.9114352464675903, -96.38130950927734, 0.08920849114656448, 0.009305291809141636, 9.186518669128418, 0.03951399400830269, 0.0729769915342331, 0.33101212978363037, 
234, 57997063, -0.01003230456262827, -1.9130120277404785, -96.37529754638672, 0.08644050359725952, 0.005553849972784519, 9.191957473754883, -0.1282299906015396, 0.01580943912267685, 0.2726791799068451, 
235, 58013730, -0.01065078005194664, -1.9125983715057373, -96.36939239501953, 0.0584280751645565, 0.011093394830822945, 9.206899642944336, 0.02613135613501072, 0.12951700389385223, 0.26763349771499634, 
236, 58030397, -0.012616200372576714, -1.913804054260254, -96.36290740966797, 0.0491655208170414, 0.020663395524024963, 9.211712837219238, -0.054644692689180374, 0.023211508989334106, 0.3024667799472809, 
237, 58047064, -0.012734832242131233, -1.912990689277649, -96.35626983642578, 0.06190772354602814, 0.016697311773896217, 9.179509162902832, 0.054920028895139694, 0.13700874149799347, 0.31496578454971313, 
238, 58063731, -0.013261483982205391, -1.913939356803894, -96.35060119628906, 0.10156434774398804, 0.029950793832540512, 9.184061050415039, 0.027373570948839188, 0.023595700040459633, 0.25335440039634705, 
239, 58080398, -0.01356839295476675, -1.9163488149642944, -96.34410858154297, 0.09723695367574692, 0.028373846784234047, 9.195966720581055, 0.0407433956861496, -0.06937199085950851, 0.3039010763168335, 
240, 58097065, -0.013905907981097698, -1.9142816066741943, -96.33808135986328, 0.08400510996580124, 0.022358447313308716, 9.184036254882812, 0.03654291480779648, 0.19420185685157776, 0.27649545669555664, 
241, 58113732, -0.014228818006813526, -1.9144783020019531, -96.33154296875, 0.06708607077598572, 0.013768398202955723, 9.20322322845459, 0.03796442225575447, 0.051321446895599365, 0.3100353181362152, 
242, 58130399, -0.015162404626607895, -1.9140828847885132, -96.32525634765625, 0.07417409867048264, 0.012409679591655731, 9.202232360839844, -0.001664825133047998, 0.08081445842981339, 0.29213201999664307, 
243, 58147066, -0.015312869101762772, -1.9150779247283936, -96.31889343261719, 0.08635110408067703, 0.006970027927309275, 9.195655822753906, 0.04605802893638611, -0.009515116922557354, 0.29781803488731384, 
244, 58163733, -0.015051903203129768, -1.9154083728790283, -96.31416320800781, 0.10594871640205383, 0.009076413698494434, 9.177252769470215, 0.06601032614707947, 0.025298941880464554, 0.2001568228006363, 
245, 58180400, -0.015166038647294044, -1.9138469696044922, -96.30815124511719, 0.09029565751552582, 0.02731507085263729, 9.174005508422852, 0.046301357448101044, 0.13348697125911713, 0.2783908247947693, 
246, 58197067, -0.015803806483745575, -1.9112005233764648, -96.30192565917969, 0.07872305065393448, 0.01175856962800026, 9.194865226745605, 0.012607851065695286, 0.19357438385486603, 0.28731685876846313, 
247, 58213734, -0.01729576848447323, -1.9116551876068115, -96.29608917236328, 0.0735374391078949, 0.00839336309581995, 9.191178321838379, -0.038905687630176544, 0.0020938380621373653, 0.2615632712841034, 
248, 58230401, -0.01799485646188259, -1.9114230871200562, -96.29060363769531, 0.07174944877624512, 0.004910132382065058, 9.18563461303711, 0.005974162369966507, 0.03769548609852791, 0.2435319423675537, 
249, 58247068, -0.018094368278980255, -1.9106764793395996, -96.28414154052734, 0.07961338758468628, 0.03345164656639099, 9.191585540771484, 0.04448285326361656, 0.06236051395535469, 0.3059500753879547, 
250, 58263735, -0.01879924163222313, -1.9118088483810425, -96.27800750732422, 0.09093937277793884, 0.03376297280192375, 9.17778205871582, 0.005948548670858145, -0.054849594831466675, 0.2858313024044037, 
251, 58280402, -0.0191192664206028, -1.911786675453186, -96.27101135253906, 0.08351874351501465, 0.03628062456846237, 9.168712615966797, 0.028218792751431465, 0.008817171677947044, 0.3386959433555603, 
252, 58297069, -0.01826661266386509, -1.9112963676452637, -96.26435852050781, 0.06818396598100662, 0.006816251203417778, 9.237875938415527, 0.09743710607290268, 0.032521720975637436, 0.3205237090587616, 
253, 58313736, -0.01912776567041874, -1.9074119329452515, -96.25817108154297, 0.07453888654708862, 0.007928451523184776, 9.203973770141602, -0.007427682168781757, 0.2309689074754715, 0.29265710711479187, 
254, 58330403, -0.019046813249588013, -1.9067707061767578, -96.25110626220703, 0.07624116539955139, 0.006594526115804911, 9.11329174041748, 0.050463419407606125, 0.030575158074498177, 0.34465086460113525, 
255, 58347070, -0.01984146423637867, -1.9054609537124634, -96.2442626953125, 0.09571003913879395, 1.6092932492028922E-4, 9.23392105102539, -0.003393682651221752, 0.06609997898340225, 0.3284892737865448, 
256, 58363737, -0.019411645829677582, -1.903663158416748, -96.23844146728516, 0.0860830694437027, -4.503439995460212E-4, 9.204670906066895, 0.06814899295568466, 0.09048327058553696, 0.27712303400039673, 
257, 58380404, -0.020150138065218925, -1.9037564992904663, -96.23284149169922, 0.10695362836122513, -0.011762145906686783, 9.209835052490234, -0.0028558161575347185, -0.02616337314248085, 0.26285675168037415, 
258, 58397071, -0.021159090101718903, -1.901505947113037, -96.22651672363281, 0.09218031913042068, 0.0040732999332249165, 9.185481071472168, -0.0170836690813303, 0.10985926538705826, 0.2981894314289093, 
259, 58413738, -0.022244179621338844, -1.9006584882736206, -96.22074890136719, 0.07363774627447128, 0.02143930271267891, 9.17125129699707, -0.023141073063015938, 0.022865736857056618, 0.26582780480384827, 
260, 58430405, -0.021725201979279518, -1.8987443447113037, -96.21577453613281, 0.08421579003334045, 0.03302590548992157, 9.197035789489746, 0.07035168260335922, 0.08136514574289322, 0.22224780917167664, 
261, 58447072, -0.021328071132302284, -1.8974716663360596, -96.21060943603516, 0.07436379045248032, 0.03620561584830284, 9.2273588180542, 0.0621684305369854, 0.03923225402832031, 0.23847344517707825, 
262, 58463739, -0.021710429340600967, -1.895456314086914, -96.20443725585938, 0.06606324017047882, 0.02898849919438362, 9.171422958374023, 0.015181927010416985, 0.07935453951358795, 0.293694406747818, 
263, 58480406, -0.021416669711470604, -1.8948379755020142, -96.19981384277344, 0.084598608314991, 0.01297808438539505, 9.172861099243164, 0.05506089702248573, -0.009515116922557354, 0.2736908793449402, 
264, 58497073, -0.021103136241436005, -1.8924044370651245, -96.19261169433594, 0.08211687207221985, 0.009029923006892204, 9.192036628723145, 0.05652083083987236, 0.09638699144124985, 0.3336118161678314, 
265, 58513740, -0.02176491916179657, -1.8899602890014648, -96.1874771118164, 0.09552407264709473, -1.966913987416774E-4, 9.21010684967041, -0.005327441263943911, 0.09313417226076126, 0.24737384915351868, 
266, 58530407, -0.02251771278679371, -1.8890875577926636, -96.18233489990234, 0.10742568969726562, 9.40542493481189E-4, 9.206391334533691, -0.009617567993700504, -0.004789574537426233, 0.2605772018432617, 
267, 58547074, -0.02318003959953785, -1.8879859447479248, -96.17579650878906, 0.08747760951519012, 3.218586425646208E-5, 9.16345500946045, -0.00645440025255084, 0.006524835247546434, 0.25651758909225464, 
268, 58563741, -0.024276424199342728, -1.8860037326812744, -96.16845703125, 0.07783620804548264, 0.011783509515225887, 9.18844985961914, -0.029198475182056427, 0.05621347203850746, 0.3275671899318695, 
269, 58580408, -0.024618295952677727, -1.8826936483383179, -96.16217041015625, 0.07729614526033401, 0.012927989475429058, 9.217774391174316, 0.014362320303916931, 0.13148918747901917, 0.2983047068119049, 
270, 58597075, -0.02366332896053791, -1.8799103498458862, -96.1556396484375, 0.0828106552362442, 0.027415204793214798, 9.217083930969238, 0.09477338194847107, 0.09634856879711151, 0.365896612405777, 
271, 58613742, -0.022901495918631554, -1.8747844696044922, -96.14913177490234, 0.09078190475702286, 0.023105498403310776, 9.193144798278809, 0.07943138480186462, 0.23381194472312927, 0.3140949606895447, 
272, 58630409, -0.02223963290452957, -1.8706610202789307, -96.14385223388672, 0.07888755947351456, 0.013603892177343369, 9.205862045288086, 0.06871246546506882, 0.16990825533866882, 0.21972493827342987, 
273, 58647076, -0.0210262481123209, -1.8659504652023315, -96.13861846923828, 0.08755971491336823, 0.006469072308391333, 9.1901216506958, 0.10426289588212967, 0.20246198773384094, 0.274740993976593, 
274, 58663743, -0.02037113346159458, -1.8631635904312134, -96.13044738769531, 0.07969208061695099, -3.184340603183955E-4, 9.182723999023438, 0.07088954746723175, 0.08441305160522461, 0.35005515813827515, 
275, 58680410, -0.019576242193579674, -1.860155463218689, -96.12567138671875, 0.0678156167268753, 0.020809950307011604, 9.197808265686035, 0.0783812552690506, 0.09387694299221039, 0.26133275032043457, 
276, 58697077, -0.019011136144399643, -1.8564821481704712, -96.1188735961914, 0.09594964236021042, 0.0195976160466671, 9.202199935913086, 0.06424305588006973, 0.13105377554893494, 0.307345986366272, 
277, 58713744, -0.018591254949569702, -1.8537023067474365, -96.11306762695312, 0.0914902463555336, 0.02649274654686451, 9.183114051818848, 0.05334484949707985, 0.07401429116725922, 0.2727944552898407, 
278, 58730411, -0.018526963889598846, -1.8523142337799072, -96.10706329345703, 0.0650869756937027, 0.01838170550763607, 9.11719036102295, 0.028602981939911842, -0.010859783738851547, 0.2321983128786087, 
279, 58747078, -0.018584586679935455, -1.8493103981018066, -96.10004425048828, 0.08224564790725708, 0.019086362794041634, 9.324960708618164, 0.026400288566946983, 0.0823640301823616, 0.3451118767261505, 
280, 58763745, -0.017749866470694542, -1.8447201251983643, -96.09481048583984, 0.0791378915309906, 0.007327648811042309, 9.239618301391602, 0.07646030932664871, 0.17403188347816467, 0.26537954807281494, 
281, 58780412, -0.016700657084584236, -1.8433117866516113, -96.08528900146484, 0.09395411610603333, 0.00202413322404027, 9.183586120605469, 0.08279944956302643, -0.0174934733659029, 0.26692911982536316, 
282, 58797079, -0.017836080864071846, -1.8393038511276245, -96.07557678222656, 0.10512261092662811, 0.01244520116597414, 9.141575813293457, -0.044271547347307205, 0.13524144887924194, 0.3224574625492096, 
283, 58813746, -0.01807502657175064, -1.837151050567627, -96.06733703613281, 0.08828581869602203, 0.012620379216969013, 9.19753646850586, 0.005833292845636606, 0.02277609519660473, 0.2425074428319931, 
284, 58830413, -0.0176381878554821, -1.834863543510437, -96.05426025390625, 0.07684902101755142, 0.015030723065137863, 9.230602264404297, 0.03879683464765549, 0.029550651088356972, 0.2549680173397064, 
285, 58847080, -0.018259689211845398, -1.8311833143234253, -96.05916595458984, 0.07897337526082993, 0.02612088806927204, 9.196903228759766, 1.8569205712992698E-4, 0.10559475421905518, 0.25323915481567383, 
286, 58863747, -0.018784137442708015, -1.827606201171875, -96.06104278564453, 0.06674990803003311, 0.018449652940034866, 9.142813682556152, -2.4332063912879676E-4, 0.09750112891197205, 0.224130317568779, 
287, 58880414, -0.019492460414767265, -1.8246287107467651, -96.06575775146484, 0.07388801872730255, 0.019365161657333374, 9.17026138305664, 4.2901269625872374E-4, 0.05757094547152519, 0.33577609062194824, 
288, 58897081, -0.018865585327148438, -1.8200181722640991, -96.0566177368164, 0.08606142550706863, 0.00810726173222065, 9.213035583496094, 0.05699464678764343, 0.15615421533584595, 0.3390929102897644, 
289, 58913748, -0.0189130250364542, -1.8179264068603516, -96.04898071289062, 0.08740608394145966, 0.005811336915940046, 9.169037818908691, 0.017077267169952393, 0.0043349489569664, 0.27468976378440857, 
290, 58930415, -0.01938868872821331, -1.8153480291366577, -96.05281829833984, 0.08885087072849274, 0.0073061916045844555, 9.168136596679688, 0.01109670102596283, 0.026912543922662735, 0.3371335566043854, 
291, 58947082, -0.01986122503876686, -1.8116170167922974, -96.0507583618164, 0.07182097434997559, 0.006201143376529217, 9.139827728271484, 0.005103330127894878, 0.09627173840999603, 0.3601721525192261, 
292, 58963749, -0.021163154393434525, -1.809073805809021, -96.04627990722656, 0.0902847871184349, 0.013668320141732693, 9.269883155822754, -0.05671931803226471, 0.02462020516395569, 0.22683244943618774, 
293, 58980416, -0.020663244649767876, -1.8051389455795288, -96.04154205322266, 0.07781826704740524, -0.004559664521366358, 9.198219299316406, 0.056828174740076065, 0.10476233810186386, 0.32697808742523193, 
294, 58997083, -0.021502578631043434, -1.8027644157409668, -96.01902770996094, 0.0810978040099144, 0.017248010262846947, 9.183003425598145, -0.05944707244634628, 0.015732601284980774, 0.24583707749843597, 
295, 59013750, -0.022162510082125664, -1.7993377447128296, -96.01336669921875, 0.08685176819562912, 0.019998151808977127, 9.179366111755371, -0.019209524616599083, 0.07091515511274338, 0.26039791107177734, 
296, 59030417, -0.022756552323698997, -1.7956922054290771, -96.00607299804688, 0.08174494653940201, 0.035053983330726624, 9.211698532104492, -0.017813634127378464, 0.08335013687610626, 0.2870479226112366, 
297, 59047084, -0.022733768448233604, -1.7922388315200806, -95.9889144897461, 0.09355715662240982, 0.027601167559623718, 9.198695182800293, 4.034000157844275E-4, 0.07302820682525635, 0.28029894828796387, 
298, 59063751, -0.023371638730168343, -1.7877734899520874, -95.99581909179688, 0.07056214660406113, 0.008879723027348518, 9.186586380004883, 0.0036690188571810722, 0.12579037249088287, 0.28243762254714966, 
299, 59080418, -0.022671572864055634, -1.7831493616104126, -95.9814224243164, 0.06965378671884537, 0.0047241696156561375, 9.192927360534668, 0.043112579733133316, 0.13872478902339935, 0.2750227749347687, 
300, 59097085, -0.021875686943531036, -1.7788872718811035, -95.96752166748047, 0.08494207262992859, -0.004910132382065058, 9.212824821472168, 0.04996397718787193, 0.11610877513885498, 0.23665495216846466, 
301, 59113752, -0.021423347294330597, -1.7755014896392822, -95.95957946777344, 0.08375129103660583, 0.0038874971214681864, 9.197418212890625, 0.03902734816074371, 0.059376634657382965, 0.2626902163028717, 
302, 59130419, -0.021909911185503006, -1.7708227634429932, -95.95809173583984, 0.08435915410518646, -0.004330786876380444, 9.192694664001465, -0.004098031669855118, 0.1329619139432907, 0.2717059254646301, 
303, 59147086, -0.022928688675165176, -1.7669035196304321, -95.96246337890625, 0.08251740783452988, 0.02401423268020153, 9.194110870361328, -0.026880526915192604, 0.08279944956302643, 0.2820662260055542, 
304, 59163753, -0.022914916276931763, -1.762648344039917, -95.95305633544922, 0.08008915930986404, 0.021807711571455002, 9.217896461486816, 0.007523730397224426, 0.10660645365715027, 0.26978498697280884, 
305, 59180420, -0.02297813631594181, -1.7593040466308594, -95.96060180664062, 0.07552582025527954, 0.014272517524659634, 9.187573432922363, 0.037042368203401566, 0.045699454843997955, 0.2700154781341553, 
306, 59197087, -0.02267005480825901, -1.7561362981796265, -95.95033264160156, 0.07901636511087418, 0.032954856753349304, 9.182388305664062, 0.02648993767797947, 0.03900173678994179, 0.27743035554885864, 
307, 59213754, -0.021963145583868027, -1.7532224655151367, -95.94819641113281, 0.07496071606874466, 0.015524261631071568, 9.17477798461914, 0.0634874776005745, 0.020035531371831894, 0.2672877311706543, 
308, 59230421, -0.02156749926507473, -1.7485467195510864, -95.96144104003906, 0.09426524490118027, 0.033147864043712616, 9.193291664123535, 0.07802268862724304, 0.11790166050195694, 0.34284520149230957, 
309, 59247088, -0.020560817793011665, -1.7442924976348877, -95.94966888427734, 0.08907269686460495, 0.006791382096707821, 9.191031455993652, 0.06811057031154633, 0.1016375944018364, 0.3161311149597168, 
310, 59263755, -0.021904468536376953, -1.7391176223754883, -95.9599838256836, 0.09886067360639572, 0.017466196790337563, 9.214970588684082, -0.029902828857302666, 0.1494693011045456, 0.29176065325737, 
311, 59280422, -0.02219216153025627, -1.734322428703308, -95.96263885498047, 0.08512088656425476, -0.003801508340984583, 9.19087028503418, 0.015041058883070946, 0.12750642001628876, 0.2940146028995514, 
312, 59297089, -0.021357813850045204, -1.7306032180786133, -95.9422836303711, 0.08716647326946259, -0.002256586914882064, 9.202786445617676, 0.036184340715408325, 0.06740622222423553, 0.3332916796207428, 
313, 59313756, -0.021846558898687363, -1.7267937660217285, -95.93344116210938, 0.06463279575109482, 0.010517626069486141, 9.167403221130371, -0.018120985478162766, 0.06968574970960617, 0.3283868134021759, 
314, 59330423, -0.02163565717637539, -1.7230299711227417, -95.91276550292969, 0.08716647326946259, 0.008557864464819431, 9.19839859008789, -0.008900412358343601, 0.06855878978967667, 0.2461828589439392, 
315, 59347090, -0.02141532488167286, -1.7177587747573853, -95.90062713623047, 0.10008014738559723, 0.024639826267957687, 9.180301666259766, 0.016949202865362167, 0.15765255689620972, 0.29428350925445557, 
316, 59363757, -0.019632918760180473, -1.7132560014724731, -95.8924331665039, 0.103034108877182, 0.0230343509465456, 9.223299980163574, 0.11493057757616043, 0.10947507619857788, 0.2622036039829254, 
317, 59380424, -0.0194223765283823, -1.7087836265563965, -95.88140106201172, 0.07841907441616058, 0.02720063179731369, 9.214326858520508, 0.011698598973453045, 0.10640155524015427, 0.27306339144706726, 
318, 59397091, -0.01838618703186512, -1.7032995223999023, -95.86994934082031, 0.07520763576030731, 0.030383456498384476, 9.200662612915039, 0.06352589279413223, 0.16750063002109528, 0.29182466864585876, 
319, 59413758, -0.017404090613126755, -1.6997276544570923, -95.85395050048828, 0.07525412738323212, 0.002413939917460084, 9.118680953979492, 0.049016304314136505, 0.05398516729474068, 0.2974594533443451, 
320, 59430425, -0.018730517476797104, -1.6975687742233276, -95.87548065185547, 0.08387278765439987, 0.022791169583797455, 9.21605396270752, -0.003662616014480591, -0.04378490895032883, 0.28416648507118225, 
321, 59447092, -0.02073834091424942, -1.6919094324111938, -95.9140396118164, 0.06781565397977829, 0.010395585559308529, 9.187530517578125, -0.01042436808347702, 0.15765255689620972, 0.2785317003726959, 
322, 59463759, -0.01916363462805748, -1.6880046129226685, -95.91354370117188, 0.06084916740655899, 0.02772633545100689, 9.175042152404785, 0.11706925928592682, 0.0642174482345581, 0.2551601231098175, 
323, 59480426, -0.018859710544347763, -1.6821664571762085, -95.89640808105469, 0.09668991714715958, 0.005611367989331484, 9.245916366577148, 0.005948549602180719, 0.18563444912433624, 0.31191784143447876, 
324, 59497093, -0.017980797216296196, -1.6758605241775513, -95.86311340332031, 0.09601043909788132, 0.027347257360816002, 9.160222053527832, 0.003156765131279826, 0.21926388144493103, 0.3064239025115967, 
325, 59513760, -0.01778377965092659, -1.6719567775726318, -95.86779022216797, 0.07532933354377747, 0.006065405905246735, 9.181011199951172, 0.04238261282444, 0.05905647948384285, 0.2634970545768738, 
326, 59530427, -0.020057888701558113, -1.6688239574432373, -95.9205322265625, 0.08444499224424362, 0.010252971202135086, 9.173711776733398, 0.009291007183492184, -0.0050457012839615345, 0.26293355226516724, 
327, 59547094, -0.019041262567043304, -1.664175271987915, -95.89635467529297, 0.08615083247423172, -0.01005271915346384, 9.209988594055176, 0.028474919497966766, 0.11578860878944397, 0.2614864408969879, 
328, 59563761, -0.019794834777712822, -1.660534143447876, -95.89136505126953, 0.09417589008808136, -0.017988409847021103, 9.215313911437988, -0.02530534379184246, 0.046749576926231384, 0.3588531017303467, 
329, 59580428, -0.020385263487696648, -1.6561353206634521, -95.91357421875, 0.0979953333735466, -0.01827777549624443, 9.191485404968262, 0.042305782437324524, 0.08060957491397858, 0.26284393668174744, 
330, 59597095, -0.019928574562072754, -1.651023030281067, -95.88814544677734, 0.09986916184425354, -0.006683931220322847, 9.178854942321777, -0.010040177963674068, 0.1394931524991989, 0.2766619622707367, 
331, 59613762, -0.019048139452934265, -1.6470504999160767, -95.84882354736328, 0.07935246080160141, 0.0020563192665576935, 9.186421394348145, -0.01668667420744896, 0.07602489739656448, 0.2985096275806427, 
332, 59630429, -0.020306983962655067, -1.6437410116195679, -95.84288024902344, 0.0783904641866684, 0.0012874345993623137, 9.212045669555664, -0.06159855052828789, 0.024005504325032234, 0.3188076913356781, 
333, 59647096, -0.019040321931242943, -1.6393779516220093, -95.83744049072266, 0.0772639587521553, 0.019497482106089592, 9.187651634216309, 0.09016309678554535, 0.08780673146247864, 0.29438596963882446, 
334, 59663763, -0.0207297895103693, -1.6344486474990845, -95.84626007080078, 0.08509227633476257, 0.021646782755851746, 9.172088623046875, -0.049995992332696915, 0.11911827325820923, 0.27652111649513245, 
335, 59680430, -0.020914722234010696, -1.6305681467056274, -95.84037780761719, 0.06565915793180466, 0.03903445228934288, 9.192608833312988, -7.683809963054955E-4, 0.05895403027534485, 0.2593350112438202, 
336, 59697097, -0.020737772807478905, -1.6278650760650635, -95.82962799072266, 0.06990412622690201, 0.03116307035088539, 9.226339340209961, 0.007831081748008728, -0.011922711506485939, 0.2653411328792572, 
337, 59713764, -0.02043025568127632, -1.6249334812164307, -95.8199462890625, 0.06745444983243942, 0.030093781650066376, 9.189704895019531, 0.02323712222278118, 0.0014022951945662498, 0.34343427419662476, 
338, 59730431, -0.019940964877605438, -1.6197943687438965, -95.81053161621094, 0.07070519775152206, 0.01098610833287239, 9.190277099609375, 0.026464320719242096, 0.13401202857494354, 0.22680683434009552, 
339, 59747098, -0.01961495541036129, -1.613987922668457, -95.8077621459961, 0.08689825981855392, -0.010571268387138844, 9.190755844116211, 0.03569769859313965, 0.16551566123962402, 0.2984199523925781, 
340, 59763765, -0.019175410270690918, -1.6084787845611572, -95.80804443359375, 0.09056029468774796, 0.01262043509632349, 9.208537101745605, 0.05039938539266586, 0.15083958208560944, 0.24766840040683746, 
341, 59780432, -0.018971117213368416, -1.603084683418274, -95.8171157836914, 0.0923270732164383, 0.006044128909707069, 9.192855834960938, 0.058070387691259384, 0.1388656497001648, 0.2375897914171219, 
342, 59797099, -0.01950041949748993, -1.5993928909301758, -95.8106460571289, 0.09271670877933502, 0.003933902829885483, 9.17175579071045, -0.018953396007418633, 0.04293328896164894, 0.34383127093315125, 
343, 59813766, -0.02121681533753872, -1.596151351928711, -95.83895111083984, 0.08141236007213593, -3.9695901796221733E-4, 9.209266662597656, 0.008663496002554893, 0.009700809605419636, 0.3675614297389984, 
344, 59830433, -0.02103089541196823, -1.5921927690505981, -95.81534576416016, 0.085324726998806, -0.0035869358107447624, 9.190884590148926, -0.02581760101020336, 0.06552369147539139, 0.2942450940608978, 
345, 59847100, -0.021855635568499565, -1.5861198902130127, -95.8089370727539, 0.09469803422689438, -3.936506691388786E-4, 9.178999900817871, -0.040109485387802124, 0.18366225063800812, 0.2853318452835083, 
346, 59863767, -0.021596046164631844, -1.5802782773971558, -95.7983169555664, 0.09205514937639236, 0.012194867245852947, 9.182891845703125, 0.007728632539510727, 0.1743648648262024, 0.2114008367061615, 
347, 59880434, -0.02233721874654293, -1.574093222618103, -95.82270050048828, 0.08277846872806549, 0.003737136721611023, 9.176380157470703, 0.050322555005550385, 0.17807869613170624, 0.26201149821281433, 
348, 59897101, -0.0224321186542511, -1.568006157875061, -95.83649444580078, 0.0686597004532814, 0.01633639633655548, 9.202285766601562, 0.06506265699863434, 0.17409591376781464, 0.3158750534057617, 
349, 59913768, -0.021344540640711784, -1.5633481740951538, -95.83576202392578, 0.07994946092367172, 0.01289197988808155, 9.184783935546875, 0.09027836471796036, 0.09732185304164886, 0.2488337755203247, 
350, 59930435, -0.023338008671998978, -1.5598610639572144, -95.85527801513672, 0.0755331739783287, 0.029163913801312447, 9.181415557861328, -0.03266900032758713, 0.01881893165409565, 0.29712653160095215, 
351, 59947102, -0.02443454973399639, -1.555428147315979, -95.86006927490234, 0.07851921021938324, 0.02840939164161682, 9.218017578125, -0.02155308797955513, 0.08602665364742279, 0.30518171191215515, 
352, 59963769, -0.023810122162103653, -1.551936149597168, -95.85395050048828, 0.06893854588270187, 0.01580326072871685, 9.161981582641602, 0.04759480431675911, 0.030716031789779663, 0.2731402516365051, 
353, 59980436, -0.023247305303812027, -1.548719048500061, -95.85323333740234, 0.07346981018781662, 0.016586489975452423, 9.153742790222168, 0.05397236719727516, 0.010827768594026566, 0.19499588012695312, 
354, 59997103, -0.0243613850325346, -1.5432618856430054, -95.8572998046875, 0.09352854639291763, -0.0015341929392889142, 9.242175102233887, -0.025920052081346512, 0.14047925174236298, 0.2600392997264862, 
355, 60013770, -0.024875551462173462, -1.5390625, -95.87895202636719, 0.09476949274539948, 0.026721421629190445, 9.192290306091309, 0.06487056612968445, 0.05824967473745346, 0.27753275632858276, 
356, 60030437, -0.02374904416501522, -1.5366220474243164, -95.87702941894531, 0.09013830125331879, 0.026041941717267036, 9.160250663757324, 0.09436358511447906, -0.03524307161569595, 0.3007378876209259, 
357, 60047104, -0.024498188868165016, -1.5325500965118408, -95.8965835571289, 0.09077129513025284, 0.015424181707203388, 9.185699462890625, 0.04651906341314316, 0.05353694409132004, 0.29824066162109375, 
358, 60063771, 0.21045882999897003, -1.1060082912445068, -97.32660675048828, 0.07888755947351456, 0.01032093446701765, 9.160930633544922, 0.01696201041340828, 0.05680256336927414, 0.25430208444595337, 
359, 60080438, 0.20977967977523804, -1.1057212352752686, -97.32649230957031, 0.07032254338264465, -0.005757693666964769, 9.212882041931152, 0.006998669356107712, 0.06239893659949303, 0.290006160736084, 
360, 60097105, 0.2087869495153427, -1.1055960655212402, -97.32915496826172, 0.08972346782684326, -0.009730859659612179, 9.193516731262207, -0.014586430974304676, 0.05138547345995903, 0.12484269589185715, 
361, 60113772, 0.20997075736522675, -1.1062185764312744, -97.32910919189453, 0.09393589943647385, 0.019375871866941452, 9.09327220916748, 0.119297556579113, 0.006921831984072924, 0.2853318750858307, 
362, 60130439, 0.20757299661636353, -1.1057833433151245, -97.32998657226562, 0.10153567790985107, 0.0342278815805912, 9.220767974853516, -0.09705932438373566, 0.06998030096292496, 0.23040543496608734, 
363, 60147106, 0.20734097063541412, -1.1015329360961914, -97.33050537109375, 0.08857554197311401, 0.01028198841959238, 9.295496940612793, 0.033226072788238525, 0.29906025528907776, 0.25224024057388306, 
364, 60163773, 0.20722778141498566, -1.100767731666565, -97.32959747314453, 0.0756475105881691, 0.016300352290272713, 9.125336647033691, 0.042549096047878265, 0.0899197906255722, 0.33751773834228516, 
365, 60180440, 0.20769916474819183, -1.101945161819458, -97.32974243164062, 0.07621632516384125, 0.0046668765135109425, 9.150781631469727, 0.07549982517957687, -0.026342658326029778, 0.27427995204925537, 
366, 60197107, 0.20632126927375793, -1.0999294519424438, -97.3298110961914, 0.07541505992412567, 0.0014555163215845823, 9.164456367492676, -0.03543516993522644, 0.1645808070898056, 0.2793000638484955, 
367, 60213774, 0.20597463846206665, -1.1009289026260376, -97.32902526855469, 0.09661120176315308, 0.017398277297616005, 9.24340534210205, 0.02759128250181675, -0.016853157430887222, 0.33076879382133484, 
368, 60230441, 0.205704465508461, -1.101111888885498, -97.32928466796875, 0.09857815504074097, 0.01460165437310934, 9.222290992736816, 0.030728833749890327, 0.032278403639793396, 0.26899096369743347, 
369, 60247108, 0.2056725025177002, -1.1009719371795654, -97.32969665527344, 0.08792462944984436, 0.009273105300962925, 9.122428894042969, 0.04427795112133026, 0.05188492313027382, 0.25837451219558716, 
370, 60263775, 0.20448702573776245, -1.1005091667175293, -97.32971954345703, 0.07996749132871628, 0.01856071874499321, 9.168390274047852, -0.02419119141995907, 0.07091516256332397, 0.28262972831726074, 
371, 60280442, 0.20428618788719177, -1.0989501476287842, -97.32984924316406, 0.06998279690742493, 0.003501106984913349, 9.241427421569824, 0.034481097012758255, 0.13648366928100586, 0.27568867802619934, 
372, 60297109, 0.20394402742385864, -1.0988746881484985, -97.3296127319336, 0.06808741390705109, 0.026775063946843147, 9.20703125, 0.026758866384625435, 0.0471721887588501, 0.29731860756874084, 
373, 60313776, 0.2038489431142807, -1.0984632968902588, -97.3292465209961, 0.08827152103185654, 0.029993651434779167, 9.12277603149414, 0.04183194041252136, 0.06768795847892761, 0.30579641461372375, 
374, 60330443, 0.20451347529888153, -1.0988383293151855, -97.32836151123047, 0.07798291742801666, 0.019265061244368553, 9.172989845275879, 0.08730730414390564, 0.02053498476743698, 0.33689025044441223, 
375, 60347110, 0.20482850074768066, -1.0989843606948853, -97.32811737060547, 0.08068996667861938, 0.019565429538488388, 9.217849731445312, 0.06540842354297638, 0.03325168788433075, 0.2980101704597473, 
376, 60363777, 0.20401059091091156, -1.097342610359192, -97.32936096191406, 0.0740775614976883, 0.0069414181634783745, 9.226815223693848, -0.004238901659846306, 0.1401975005865097, 0.20769977569580078, 
377, 60380444, 0.20428688824176788, -1.0973683595657349, -97.32902526855469, 0.0681803897023201, 0.024915436282753944, 9.142895698547363, 0.06255260854959488, 0.041037943214178085, 0.3047206401824951, 
378, 60397111, 0.20409265160560608, -1.097341775894165, -97.32843017578125, 0.08740250766277313, 0.009183700196444988, 9.192930221557617, 0.03483967110514641, 0.043253444135189056, 0.32047247886657715, 
379, 60413778, 0.20387385785579681, -1.0972892045974731, -97.32862091064453, 0.09471942484378815, 0.015939155593514442, 9.220484733581543, 0.0328931100666523, 0.04502072185277939, 0.2715907096862793, 
380, 60430445, 0.2042488306760788, -1.097868800163269, -97.32838439941406, 0.10123170167207718, -0.004877946805208921, 9.217373847961426, 0.068597212433815, 0.0072035719640553, 0.29693442583084106, 
381, 60447112, 0.20412671566009521, -1.098059058189392, -97.32810974121094, 0.10422856360673904, -0.004756355658173561, 9.166084289550781, 0.03855351731181145, 0.029870811849832535, 0.30128857493400574, 
382, 60463779, 0.20439770817756653, -1.0981613397598267, -97.32809448242188, 0.08270694315433502, -0.0036262741778045893, 9.157930374145508, 0.06177142634987831, 0.035275090485811234, 0.2839359939098358, 
383, 60480446, 0.20483914017677307, -1.097120761871338, -97.32905578613281, 0.08859338611364365, 0.0229807086288929, 9.18124008178711, 0.07097919285297394, 0.1043909564614296, 0.22561587393283844, 
384, 60497113, 0.20236629247665405, -1.096208930015564, -97.32838439941406, 0.09471960365772247, 0.02030554600059986, 9.294716835021973, -0.10184889286756516, 0.09591314941644669, 0.323456346988678, 
385, 60513780, 0.20294122397899628, -1.0952013731002808, -97.328369140625, 0.07593361288309097, 0.027887264266610146, 9.170382499694824, 0.07967470586299896, 0.10189372301101685, 0.28447383642196655, 
386, 60530447, 0.20302549004554749, -1.0960701704025269, -97.32945251464844, 0.06527293473482132, 0.036902882158756256, 9.137602806091309, 0.04899068921804428, -0.010911009274423122, 0.21881568431854248, 
